# pn-170911/CsII-15-KOKB-1280-1959.psd
# Power spectrum* (dif=0,1,2) (really just |FT|^2)
# NOTE: only the first half! (symmetric)
# weeks: 1280-1959
# 3 clock-days, 1 excluded
# PSD: 1441
172169 2.95678 0.0291052
2.33177e+06 40.9804 0.0134446
1.44557e+07 263.109 0.0152969
4.42827e+06 166.274 0.022498
2.04739e+06 103.767 0.0341277
821096 91.5941 0.0317702
490278 61.2795 0.0177641
346932 49.3184 0.0272343
369711 124.43 0.0700877
159695 61.6915 0.0479246
263653 81.8994 0.0278853
114502 74.102 0.0216997
63890.3 57.0935 0.0670222
103940 75.7871 0.0674054
38532.5 26.0271 0.0480804
78358.8 66.0393 0.123723
132416 166.409 0.266589
85547.9 147.93 0.220648
109724 132.75 0.179612
59508.9 72.8509 0.138882
73356.5 143.515 0.207432
3922.45 21.972 0.0752873
33840.6 60.2352 0.153552
52269.7 85.6261 0.268546
18376.7 70.3524 0.168959
21662.9 44.051 0.152921
28601.4 89.8698 0.364535
24337.5 47.5853 0.135729
4807.55 19.5937 0.0515681
42103.7 165.914 0.627018
7545.33 41.0536 0.151941
8322.03 54.558 0.29539
11803.5 34.4158 0.19779
11778.6 47.7291 0.28384
6908.6 59.4256 0.278957
16836.8 66.9515 0.414151
15446.9 120.547 0.660232
19756.1 95.9113 0.650615
8204.11 37.3731 0.25548
5906.46 40.2369 0.274817
21747.3 122.758 0.963761
11481.6 91.1763 0.755628
8949.52 101.601 0.798936
10490.3 61.1906 0.445747
14410.2 109.508 1.11566
7461.61 70.354 0.553735
9944.06 107.907 1.04655
8110.63 87.2844 1.00708
8051.4 46.0819 0.455551
5056.42 98.5752 1.20102
8460.8 59.3848 0.762107
7650.96 58.439 0.82937
4508.77 33.5311 0.37718
4181.01 30.2217 0.434775
8830.9 69.5666 0.944165
11415.6 154.225 2.1189
5860.9 74.1302 1.25596
3475.76 57.1564 1.0576
8269.1 138.471 1.97374
4857.72 50.3571 0.829114
4736.13 74.8132 1.25534
8938.38 135.229 2.20537
6468.79 113.357 2.25038
5150.01 67.0226 1.08506
4692.96 61.8313 1.09108
4757.78 69.9361 1.38855
8546.77 162.097 3.53279
4941.5 111.976 2.24478
5292.09 73.0743 1.76052
4034.62 56.0486 1.22873
7899.73 140.275 3.51278
3172.2 69.1063 1.60664
2865.05 98.4963 2.79425
2512.92 62.0296 1.4101
7354.75 175.085 4.63949
14177.1 312.604 7.95254
3555.1 73.7053 1.79689
4796.54 94.1923 2.5914
3203.34 73.1476 2.11985
2861.97 53.8163 1.58053
2923.01 106.236 3.1203
5240.64 167.972 5.40933
2837.36 68.1009 1.9961
1795.33 52.8054 1.92276
2043.23 64.5009 2.12322
1405.79 15.6469 0.526174
3845.17 93.6914 3.5293
2640.23 59.7686 2.2269
915.523 31.5983 1.02272
3454.42 126.65 4.68265
5676.1 150.078 6.29948
2625.13 98.9214 3.96193
1790.36 35.5119 1.43475
1105.14 71.1153 2.64053
2494.11 118.476 5.29935
1144.24 23.5561 0.885146
2758.54 85.0648 3.6735
1262.63 85.3503 3.79111
2576.95 65.3407 3.04214
1806.09 76.2034 3.89695
2080.09 88.9305 3.64574
1125.43 53.9955 2.66449
1468.46 35.2333 1.74124
1224.56 57.5815 3.26326
1136.56 66.9469 3.1724
1812.6 87.2459 4.87264
520.713 34.5434 1.79545
1078.37 25.5134 1.4608
932.443 52.8607 2.89838
1801.91 84.1934 5.03403
2167.94 76.9267 4.88508
1749.84 75.4434 4.00661
1360.36 36.5156 2.38049
903.344 55.5624 3.89807
3082.34 117.184 7.06066
633.254 29.7164 1.85758
780.19 37.7874 2.35021
692.679 23.7939 1.33723
1321.32 54.5346 3.41603
1145.22 42.9067 2.86474
690.017 45.926 3.35318
649.416 52.7929 3.57004
2866.34 151.293 10.7419
1379.96 135.216 9.09575
899.504 40.7858 3.1844
336.112 17.8788 1.0934
249.268 14.2777 1.16562
1455.56 57.0404 4.19156
1262.89 55.8928 4.34659
870.97 48.762 4.19426
1355.36 76.263 6.00422
580.202 20.6771 2.21382
733.705 69.888 5.88603
693.098 59.2388 5.34954
679.05 69.6265 4.92142
322.911 56.6527 4.99956
640.811 56.5243 5.48001
629.304 39.9986 2.70482
325.702 41.6184 3.56123
162.128 17.0826 1.92768
1063.05 102.728 9.39063
331.739 13.6437 1.46601
544.514 28.2305 2.7315
1434.82 105.745 9.3439
677.436 52.7973 5.84742
1051.35 66.369 6.89514
881.817 66.8582 6.92815
213.625 34.5389 4.1221
509.89 31.3871 3.56035
614.04 55.8381 7.30195
1294.64 151.978 14.1524
537.28 88.6527 9.40317
452.204 59.0101 7.15455
1314.34 85.8441 8.4426
364.779 10.7785 1.40077
994.96 75.8565 8.57924
348.633 23.3981 2.63622
845.728 76.4548 8.81968
1130.71 72.109 8.69461
286.174 21.5205 3.50801
659.658 79.7288 8.20368
309.757 27.4357 3.10201
161.654 15.3497 1.88904
207.974 5.18449 0.901197
701.536 99.117 13.1452
434.296 44.8341 4.68969
476.036 45.6715 6.15007
610.978 95.9402 13.4542
311.158 33.6282 3.62038
260.578 33.4987 5.05661
266.571 20.9629 2.52487
266.53 29.7263 4.19708
163.353 20.3221 3.11617
118.039 5.43519 1.23005
484.712 63.7663 9.15088
528.518 60.0105 8.91036
624.693 57.6355 7.49952
465.301 46.6159 5.89248
233.953 32.9472 4.97628
509.794 38.423 5.84717
242.641 21.9021 3.80265
283.889 36.8053 5.50514
366.368 25.8801 4.83881
194.832 33.3292 4.40071
125.791 26.0746 5.22956
423.626 38.1827 7.17959
868.94 103.223 15.8858
1091.35 151.076 22.2049
447.754 87.4217 15.486
361.031 48.6964 7.65813
364.105 51.3438 9.05814
524.827 52.8677 8.92927
677.241 80.1094 14.3494
764.67 88.3934 16.734
204.08 26.4594 3.83325
257.48 43.1829 7.20469
184.048 53.1576 9.58093
298.32 50.6924 8.97161
365.358 43.3125 7.42878
453.342 46.2409 8.27897
175.253 30.7748 6.51424
305.611 33.4343 7.40473
213.647 30.5812 5.68478
297.952 29.8723 6.56959
370.339 56.4028 11.6433
176.511 32.8502 7.26459
202.488 68.8338 11.3035
225.231 27.871 6.80005
344.745 67.219 13.0438
68.7297 10.4882 1.73825
194.94 47.1062 10.018
198.117 20.6318 4.1913
255.871 36.0058 6.65098
123.518 43.1208 8.87261
176.676 57.2717 11.8439
95.3167 16.3612 3.68796
146.657 39.2808 9.04153
254.137 37.6979 7.55285
292.865 66.5159 15.4092
355.809 36.3762 7.22909
231.126 23.4602 5.60952
319.69 36.5294 7.96636
225.205 31.3413 7.59925
319.744 56.8511 16.6589
77.814 15.879 2.62151
122.444 73.1289 17.2246
208.005 37.2046 7.17417
96.3102 32.9247 8.62703
397.837 61.9165 12.8255
178.281 12.8281 3.06577
641.992 133.983 33.779
261.245 35.2185 12.117
240.94 50.789 13.8231
117.448 42.5579 9.40182
123.395 27.0054 8.04617
262.161 64.0449 15.5492
165.475 37.1904 9.4883
307.476 100.37 27.5665
502.003 83.1479 19.5917
117.722 32.8337 10.6796
243.807 40.5436 10.7626
170.008 39.1915 9.39203
473.945 80.216 21.4494
103.921 57.0078 15.2725
161.329 19.416 5.11204
441.28 74.5782 19.8534
85.9427 18.9831 6.77888
235.966 39.1401 13.0712
174.288 41.5996 9.53513
128.262 48.1021 13.8669
57.6561 16.3817 5.26918
123.737 42.1049 12.2403
187.673 27.9994 7.79791
215.125 36.8703 9.90189
50.9451 1.31844 0.411408
167.278 22.0151 6.42233
174.32 30.8958 11.0229
141.35 29.6179 6.69476
114.306 19.004 6.28788
21.2512 3.50901 0.903157
192.737 39.072 14.0254
91.0513 26.6046 8.01705
41.3887 5.22073 1.78222
210.966 64.3029 21.175
222.653 72.7769 24.9881
126.018 29.9506 6.53806
89.909 25.9798 10.1879
109.668 63.6559 17.9714
25.0565 15.1353 5.03798
190.344 40.7748 14.4409
120.992 63.4878 21.5944
82.1499 15.6783 6.51489
66.1313 12.1976 6.57962
383.347 89.8185 27.295
121.43 25.7451 12.6632
162.22 70.0847 20.3741
169.976 75.4548 25.1716
143.747 24.081 10.8364
68.0624 30.7917 11.0591
164.355 31.0537 8.46161
220.297 65.0336 26.9423
167.583 41.9406 12.8833
91.1431 15.9387 6.57218
25.4424 21.3472 9.83811
192.376 28.5699 10.4269
83.0713 17.6945 8.63802
100.052 21.7449 9.08228
47.5358 34.9736 11.3899
36.7861 37.9362 11.8273
99.1806 17.8677 6.34529
23.0155 7.72022 2.81836
33.7097 44.0616 15.0149
38.1577 10.5556 3.88016
218.453 79.2781 32.393
133.082 35.3664 12.2185
93.2491 41.0578 22.1491
148.92 50.926 17.1913
34.5597 26.6911 11.9489
157.495 34.2874 13.7455
38.9075 17.9103 5.64301
90.1734 54.1109 17.9878
37.1303 39.5693 15.5488
45.9149 41.9132 21.1621
69.7185 7.57205 4.63577
99.5189 42.6364 17.8352
65.1613 35.8935 16.5681
151.425 58.177 26.9313
37.8021 16.7576 8.11312
48.8587 8.03695 2.27121
41.5995 10.0132 3.54264
83.6427 26.4881 10.0974
93.4782 30.066 14.6642
91.8461 28.9893 14.6673
95.6775 19.9009 8.09718
62.9473 17.7328 8.77382
34.9369 16.7472 6.81856
37.6678 9.02988 3.66491
83.7553 38.6267 16.315
84.5518 11.984 5.88727
120.178 26.7374 11.3274
72.7787 11.6869 4.96432
72.69 18.0025 9.15709
56.1879 17.9901 8.62223
25.054 12.3208 6.23998
32.067 39.6247 17.3031
142.242 42.852 21.9318
40.3937 53.0314 23.3211
43.5574 32.7097 17.2952
39.1901 13.9155 8.60951
65.742 12.2055 8.18693
149.679 39.0862 16.0929
140.579 32.4442 16.4144
77.9576 13.9954 7.46575
29.9068 11.0537 6.09914
54.9706 32.9333 12.8571
39.6486 33.6487 18.9156
113.719 33.932 15.6279
43.9799 34.3957 19.1709
148.635 27.9729 12.9613
78.6277 28.871 14.2479
28.3915 24.1039 18.1887
125.354 27.4601 11.5169
41.1644 22.658 9.64281
27.8937 10.7758 6.50592
69.1081 28.3593 18.286
76.9499 15.0769 6.13381
44.2093 9.17415 6.26952
113.785 33.9466 20.0721
104.104 41.9995 19.5205
42.4094 13.4212 9.1474
108.04 40.6599 21.5404
33.5416 13.3926 12.875
58.0634 22.0258 9.77424
133.918 42.8003 25.0156
8.8557 16.6955 11.383
89.8999 24.3377 11.0814
91.7713 33.9671 21.5282
28.2614 13.8302 8.42761
47.281 14.0474 7.20469
61.1791 23.0003 14.7178
35.4278 16.5426 7.63217
80.1827 30.0996 19.5697
63.5423 12.9572 8.23844
22.6117 3.43822 1.69576
21.4289 22.1771 15.954
74.9249 16.4479 7.2927
55.0309 44.0107 26.1037
75.5617 15.6503 10.6142
116.839 33.8335 17.6347
69.3264 45.6855 27.8294
77.086 18.9617 17.47
56.4076 26.3395 10.675
95.1231 37.8803 27.42
57.434 29.2986 20.0033
47.7365 36.9647 25.0404
103.346 30.9714 17.1772
43.0918 18.9728 12.951
27.2824 26.0603 23.5702
57.6505 14.6245 5.23811
15.5453 13.5414 8.17386
48.1792 37.5025 21.0137
29.6428 7.35518 4.34953
52.9579 27.0653 15.9399
34.0894 11.1874 7.43927
40.4244 9.91599 6.74586
77.8998 20.229 16.0143
16.8303 22.461 13.8848
63.8372 24.5569 17.4049
49.5737 23.969 12.1609
19.3603 6.40705 7.04852
20.3494 14.8689 10.3925
61.5277 17.3206 8.46275
57.9286 41.5478 33.2521
64.814 12.3174 6.22858
62.46 20.8293 10.4007
70.4242 20.4313 11.7899
73.0724 28.9481 24.8976
47.8708 36.9386 24.4614
42.7493 20.1025 18.101
29.8911 18.0314 14.5602
53.7302 20.5701 18.1418
53.1708 33.1429 29.1163
58.0822 34.7654 19.6712
28.043 32.3869 19.3428
35.7646 21.8881 17.8136
60.4807 23.6389 13.7786
21.4505 9.5924 8.9455
5.30445 9.94619 6.20236
41.9703 27.0713 17.2256
37.1477 10.3342 6.81177
33.5057 27.9447 23.1848
10.2058 16.2199 10.8198
21.8975 5.61005 3.70053
10.7332 8.0106 6.3799
32.8982 16.8582 14.6659
32.3365 6.50206 5.30991
48.5787 14.9814 11.2652
45.2494 17.8449 14.6204
31.6358 11.9205 11.6966
15.1327 24.3703 15.9002
66.8777 49.1411 35.0982
23.0311 16.226 15.4745
28.7603 37.2796 34.1932
80.905 21.829 12.5819
34.9059 10.59 9.71523
11.8087 11.2512 8.82228
49.6286 11.0481 7.94347
61.606 23.8805 19.5343
24.868 7.02899 4.36957
54.074 29.8027 27.4903
31.5319 8.38464 6.98026
21.9025 16.8054 14.5463
26.6566 11.9469 7.2234
14.8439 38.1303 33.2858
45.3807 17.9977 13.3889
35.5136 15.4096 19.3258
30.303 14.8381 12.6301
107.458 44.9925 30.3519
28.8991 8.44694 8.83697
9.23765 13.9156 9.73471
16.9156 16.12 15.3168
56.6891 32.5928 35.2295
27.897 11.3173 8.20577
38.5951 19.2678 17.3657
45.5055 10.873 9.23488
15.7092 12.3123 9.81728
36.236 8.49116 6.91341
15.0692 6.56535 5.78149
15.3158 9.38219 10.2122
34.6294 6.85771 5.62419
19.7342 8.78101 8.71056
36.028 13.5392 8.92642
4.30407 4.92751 6.26623
27.0398 2.0777 1.10187
41.8926 13.5504 12.1203
51.611 21.8108 21.2139
60.5512 25.9 16.8679
33.0376 18.8638 14.389
14.3664 10.9273 13.6791
39.4963 15.4388 16.6087
15.6904 8.55296 9.96733
38.6215 10.5076 8.88558
26.6358 14.049 14.9036
16.4001 14.4787 9.42283
18.984 8.14256 9.30879
19.2056 13.7344 12.9459
31.2669 11.1802 5.00625
45.464 34.1673 32.8965
14.6257 23.149 25.698
25.825 6.5655 8.99682
40.2854 28.6751 22.5392
35.6764 22.8624 25.1087
20.2033 2.87079 3.92685
40.7673 13.4992 10.6769
31.1894 13.4607 16.6468
29.6784 12.4904 13.032
30.7916 18.7522 21.7394
24.0769 15.3352 12.751
3.17401 3.66942 1.67303
19.416 19.4246 21.0836
10.4944 22.1103 21.0042
22.1835 6.20444 7.48726
19.9114 13.784 13.919
33.6544 18.2518 15.7382
3.00606 11.2864 14.4954
38.8241 7.55433 6.48158
43.704 13.3321 9.37047
37.4583 18.6503 24.3251
24.1682 11.7311 12.6991
12.3606 16.0237 17.4003
6.59586 0.924175 3.53227
12.1439 27.4129 31.4669
28.1505 10.2412 8.89229
14.8554 6.78625 11.989
13.6773 8.13609 5.94203
13.6944 8.69308 8.44518
13.3972 7.6192 7.15158
7.59413 6.67305 10.4665
20.704 11.9723 10.6635
33.4795 14.3967 15.6131
29.6499 5.78875 7.79745
23.2595 6.77205 6.84655
36.559 15.2931 23.1332
36.1123 32.6771 26.3843
10.7816 1.60032 2.81252
13.1957 8.82691 10.4349
33.1869 12.9591 20.2877
39.8072 18.7921 9.42506
41.9042 43.3833 49.7616
13.7837 12.2218 16.5319
11.953 21.9401 25.7884
27.6603 18.9435 13.1876
15.6387 11.5533 12.9754
49.8536 28.6527 25.6834
21.2736 21.4771 26.4919
19.5572 30.0811 31.2063
19.1215 6.47693 12.2497
25.2171 15.921 23.4521
11.2651 5.54672 3.65985
6.72683 10.0536 10.7385
9.0225 6.1738 6.47123
15.2826 5.72523 3.17348
14.7343 11.7902 16.1478
16.286 14.3053 17.3542
37.0208 26.4616 21.406
15.2952 15.649 26.0192
10.1257 6.94783 12.3892
23.5601 10.3286 11.5083
14.8617 10.401 9.3134
21.3302 8.09127 12.7374
11.459 11.0536 11.2211
4.731 12.5395 8.18825
10.8667 25.298 26.1513
6.82283 32.8339 45.4014
39.6164 9.41722 7.19048
4.50289 9.62357 15.8412
24.791 2.11564 1.19185
14.3597 3.76356 4.9433
11.9316 15.0931 25.653
51.5424 31.8073 34.5911
20.7597 9.16759 6.85595
18.2076 13.0034 17.8227
27.4717 16.9777 25.3774
6.17271 1.90643 5.54188
5.72547 13.1084 10.5228
8.45283 1.61489 2.22234
6.7951 6.68718 15.5347
25.759 7.2439 6.58535
7.83022 4.13165 9.23987
8.63646 22.8208 25.6822
45.512 19.818 20.9517
15.2716 37.6996 37.3823
5.63051 9.73528 14.6532
17.2539 11.003 25.023
57.7644 25.3201 22.2117
6.76636 4.87034 8.34037
7.34792 7.74849 7.37426
21.0399 13.1348 19.4743
16.5041 9.83199 12.7232
11.3087 7.59074 6.77246
15.3224 7.99989 12.2293
8.58396 16.3975 20.2966
9.62366 3.95268 4.70648
4.04988 4.46616 8.91367
18.4505 7.80084 7.6604
11.0117 11.846 21.8989
29.3173 17.3589 18.7517
19.1803 6.22807 10.4688
12.6071 2.17281 5.59891
13.5356 7.05319 7.04851
16.603 17.8733 32.0504
24.1771 24.6746 24.5015
19.1803 4.19539 10.1552
8.57615 6.53112 4.04663
20.0714 25.2898 34.2381
12.837 10.8376 18.7075
12.2557 12.7798 20.9461
12.6118 8.2814 10.6116
15.4994 7.53182 7.78368
9.10247 10.7023 18.939
14.2428 9.98345 10.6352
9.41116 12.8597 15.7684
6.45726 5.28417 8.05732
16.1181 3.30198 5.68286
7.08347 17.0966 26.8485
9.80253 2.30433 14.3825
33.8533 20.6673 22.3951
36.6153 15.3813 18.5306
19.3336 7.42908 9.46783
12.2857 9.4476 12.573
25.2023 9.79433 16.484
28.4098 12.1948 11.5759
16.4493 6.39297 8.37385
14.1162 8.06237 16.2489
16.2977 13.002 17.7924
13.3402 6.14997 10.7701
12.4283 7.8033 9.3213
10.8577 1.66614 3.60412
19.7724 19.9443 28.7858
14.1918 5.85398 8.28297
12.6862 7.42522 9.11829
6.09328 1.32223 2.51988
11.1859 3.65678 4.51767
17.6088 8.21486 13.0654
9.15725 6.39005 12.0912
12.3671 6.1814 14.3696
17.7346 8.27192 8.26327
9.75187 9.89443 18.1317
20.1951 13.0323 17.115
2.83084 9.27796 14.526
19.5675 13.2742 16.4278
7.17178 12.4015 26.4422
14.1009 14.9762 18.4015
10.5104 15.2139 18.0231
8.11259 9.24822 20.6249
8.51093 8.18404 15.2084
15.7167 14.3653 17.5332
16.5814 14.8135 26.398
21.9362 13.0585 17.543
6.30389 12.1435 18.8869
14.2833 9.27128 14.162
3.48775 3.45547 7.1442
10.8021 20.3561 23.5137
6.65063 4.60082 10.2932
8.22682 5.99374 11.3505
21.5284 18.075 18.9787
2.56512 8.11162 12.8269
9.33445 7.86095 12.1386
11.9516 5.98362 11.6285
4.68437 4.94588 8.96799
14.4661 1.91531 4.36149
10.8074 5.06451 5.40496
9.56464 6.2156 5.54602
10.932 16.9558 31.0938
19.4822 3.79415 5.87391
20.3995 14.7347 24.6532
5.17761 2.61138 4.88283
19.2444 10.9511 21.3467
4.87883 0.840541 1.79046
5.67816 2.85885 8.62913
4.04025 20.3351 23.2198
5.31864 12.077 20.5141
15.6602 10.5139 21.2191
21.8872 13.455 20.5201
7.54146 7.79687 12.1104
11.3615 5.39741 17.7999
5.76342 10.6782 11.6696
2.55908 12.529 21.3949
11.0314 3.92905 9.2993
19.7141 5.84579 11.2929
15.0388 9.16244 14.3416
11.5757 12.9496 14.549
6.87198 9.29896 16.0524
14.6374 7.74128 16.6557
15.804 13.5136 20.0986
8.29133 11.6099 26.2307
17.7464 7.62535 13.2174
6.97439 9.54495 13.4575
6.86385 4.0577 11.9301
18.9381 8.66068 21.1194
6.95017 2.51837 4.31963
9.81304 5.56921 5.77592
10.6714 8.93254 26.6681
12.5538 8.81774 16.3501
21.5979 5.7574 3.27494
6.63232 3.49974 11.9638
19.9355 7.84809 11.5996
22.2695 7.20474 5.83276
15.2004 9.1258 13.4213
26.291 16.8173 23.6942
10.0924 4.17162 8.26411
11.5495 10.943 24.6087
8.16087 8.12167 11.693
9.98048 2.47682 7.25356
5.56343 4.3871 7.17152
11.1393 9.06044 21.085
5.97192 15.1936 18.6373
11.9807 3.64973 8.36305
6.45563 8.98692 17.6715
14.8627 7.64338 10.728
18.9174 12.4905 24.8416
21.1541 18.1198 25.4376
3.34928 0.751663 3.5604
9.30285 8.04592 15.3841
6.15758 4.03906 17.3319
8.41036 9.53313 10.2805
11.3518 4.90353 5.79586
6.44933 2.42812 3.57441
13.0696 14.2077 26.8438
12.4344 11.2185 30.8427
5.57274 6.47131 16.7093
7.06742 6.30968 10.3136
10.1667 10.0311 16.8695
5.77356 5.94394 7.41404
9.9726 2.34868 4.09493
3.11246 8.67802 17.8263
12.3039 6.92459 14.3331
6.08322 6.27105 11.1907
21.2135 21.0571 35.0573
9.7984 14.7443 27.9145
7.23268 0.901576 1.52223
7.9873 4.52138 18.5704
4.07825 11.1342 11.0264
7.83191 6.24629 14.1546
2.81932 8.18937 20.7104
18.9177 13.5727 14.4359
6.05053 9.26845 23.5422
9.57295 6.04236 11.358
5.89787 3.77411 9.73944
6.49421 4.33607 10.4583
4.86958 9.28009 17.7191
6.32727 10.694 23.4942
12.4906 7.37077 13.7064
9.95833 5.5119 11.9377
12.4183 5.86572 13.6725
12.6695 4.56385 9.63431
15.3166 6.27758 5.65511
10.5108 6.07964 11.7032
9.40231 5.84981 10.6805
7.92731 3.84564 16.0129
2.14241 6.9452 10.0667
8.30895 1.39393 3.51721
3.05166 1.95799 7.70227
8.38544 13.6833 19.9767
6.78704 9.20199 27.2402
13.0152 12.5804 24.2319
12.9325 6.25404 10.6985
10.1582 8.9862 20.2939
10.4449 2.0939 13.0146
20.2888 17.0625 15.8111
8.29376 11.0581 24.3723
12.5186 7.20989 11.9826
8.95319 7.76336 17.4201
3.12508 8.43987 12.7413
4.28634 2.11759 7.16665
3.32537 2.0348 2.62859
3.24302 11.7875 27.4858
9.95328 2.90736 8.65495
9.79331 5.63495 7.28205
6.78916 8.49096 10.7497
6.01286 4.11506 9.44495
9.87131 4.54401 18.994
9.71207 8.03707 13.4267
5.48877 10.0093 18.0309
11.6504 6.73096 12.0352
9.92452 1.84805 8.09958
5.77902 17.7707 39.1523
12.5842 6.26706 12.7065
10.6675 8.27984 28.1228
7.99811 9.12201 14.7696
14.9232 11.3638 17.2501
10.7763 4.74731 9.98492
10.3447 5.41547 11.1013
8.36124 3.74936 9.69432
3.6066 1.41616 5.57706
10.815 6.03873 14.4324
2.05377 5.20303 6.30614
3.42651 8.06239 24.7862
5.98509 13.4637 32.1463
16.9127 8.48287 10.4104
6.00065 7.8341 21.4283
12.9672 7.09665 15.4393
10.6275 5.11 16.4152
14.2779 14.5385 30.1674
8.37177 9.44135 14.4066
9.19745 4.17844 18.5006
11.7222 5.62438 6.30445
12.1408 4.97644 11.8714
3.3117 3.63797 8.18626
8.51592 4.93595 23.3942
18.0138 7.77331 3.96977
9.33482 4.14199 6.64427
10.1658 4.63673 14.5238
4.51284 8.26341 14.0995
10.2802 2.47605 8.91935
8.23154 5.35851 7.15618
10.3745 5.4865 11.951
5.49708 3.42411 13.1474
5.74931 2.77301 1.52713
5.36957 3.95077 13.0155
9.41429 2.23518 6.88861
8.48697 5.96619 15.4487
10.0464 2.40897 4.30526
10.812 11.1189 30.3732
8.8996 9.8073 12.8617
7.16435 6.82691 22.0299
5.49058 4.69217 9.33558
12.5521 16.6037 47.6177
3.7397 6.53575 16.3879
5.89498 11.0599 13.3434
5.21423 6.09594 13.8556
9.23283 12.161 26.2823
5.38102 5.94247 15.3224
9.32134 8.80994 19.6787
12.0345 3.03373 3.03752
11.2222 5.50665 14.6023
4.23868 6.24721 16.1952
4.7009 1.3837 16.1541
6.82134 16.3601 20.4795
8.53258 4.2258 12.1586
11.25 6.92277 14.4173
4.93777 3.67982 22.4335
15.4603 12.8053 26.126
12.4791 7.94188 20.9323
7.98092 5.23169 8.02282
5.51868 3.99158 15.8702
3.34449 6.32428 11.2749
2.62456 3.33649 3.82578
4.29372 2.14956 2.20201
3.9316 2.81792 6.92248
4.6922 0.973314 3.64107
5.15584 2.31498 2.98463
5.46497 6.6354 13.9817
8.34603 3.52331 8.35312
3.44104 7.40728 21.7641
3.63459 9.71785 24.7781
12.2234 9.16001 34.3072
15.2714 11.8488 16.6279
2.78378 2.67968 9.69744
8.83069 2.81874 8.18006
8.51618 2.84409 8.44759
14.015 13.0066 34.1674
6.72339 7.2672 10.2838
4.73635 1.80532 5.82096
4.28626 10.3385 19.6667
10.6068 9.0417 26.7666
7.31293 2.95856 3.56589
5.94861 1.47636 5.89688
9.8534 5.40834 19.1654
2.96563 2.21616 6.28264
7.05346 10.3617 24.728
8.19792 11.6937 30.5102
8.55395 5.02178 8.22883
8.23898 9.32885 31.9581
14.7799 6.39598 8.709
7.07921 6.99091 12.7805
4.44295 11.3863 24.1573
5.88248 2.07556 5.58403
5.74901 3.48313 14.6258
6.32775 5.99522 16.0003
4.86326 4.23553 13.0467
10.3856 6.01749 17.7632
7.59505 3.35027 11.3342
4.05083 4.26994 7.2489
4.48091 8.49806 21.4444
9.82201 7.61345 17.9271
9.90423 8.013 13.6966
3.25443 3.6284 15.0043
8.99349 4.27258 10.7807
7.04311 1.9853 2.7298
3.88178 4.48195 14.516
9.6609 2.50125 16.57
11.9486 10.1258 13.505
6.69847 3.09101 5.57968
6.1369 4.69068 11.6392
5.77915 5.52386 10.7416
6.64356 0.514746 2.58031
6.56261 3.99093 11.8545
7.87546 8.95215 27.3659
9.28582 9.28111 24.1996
6.30173 4.09959 14.9886
9.941 3.91992 14.7724
4.26326 6.67142 6.62998
5.70722 5.50612 14.9077
11.214 7.85101 11.0251
6.43282 3.41436 14.2415
4.87205 6.94482 12.0612
4.73914 3.41912 24.0335
6.98201 12.01 19.1675
12.1094 16.0937 31.9162
5.60007 2.41617 15.5462
2.62882 8.41482 25.3183
8.63153 10.3222 24.7792
8.03435 1.56457 10.3797
7.67109 13.1678 40.4675
9.60721 2.98694 7.94988
10.4674 6.39923 14.2034
5.34108 3.95348 12.219
7.73822 6.27393 17.0289
6.68857 4.04158 18.57
8.20892 2.55548 7.09544
9.14902 3.77906 16.5671
7.46865 2.91395 1.91813
5.12267 4.15133 8.33798
3.26488 1.40543 2.51548
4.38202 3.11503 12.6801
7.10058 5.75131 9.86258
5.69213 4.8576 20.2487
8.47337 1.65847 1.31183
6.23677 5.55521 26.2787
8.09263 6.06956 6.14834
3.57658 3.32604 18.8226
10.1349 2.42135 2.68015
9.41879 9.27461 17.7234
6.19481 5.97476 20.3168
6.22871 3.66271 8.41254
2.52303 5.07883 12.7283
8.5865 2.51133 5.76204
5.44846 2.62508 7.04411
7.53618 5.30456 7.81219
6.10443 3.68326 13.4532
10.045 3.4258 8.60467
7.39425 2.04725 4.04725
7.42434 11.4879 23.4952
10.7903 9.74887 20.8343
3.48856 2.86697 18.6798
3.53017 0.912828 7.7904
8.3348 6.52555 34.461
8.00609 8.15505 16.4945
7.51861 7.73335 18.141
5.92157 4.48139 10.1089
5.86832 0.893335 3.23855
8.5932 13.8262 33.462
6.68436 1.42399 6.05587
6.86601 7.17261 25.2509
5.84668 6.65936 16.2617
5.72468 5.06421 23.1005
17.6966 15.3424 23.1556
5.63637 4.85996 11.6178
6.61943 4.82721 14.1315
3.40309 2.66479 15.0591
4.46805 1.32762 5.17529
4.33244 1.25705 9.54899
6.90796 3.78486 15.9104
4.54997 6.01231 13.0729
7.03304 3.20642 4.70407
5.04003 5.57537 20.3259
2.57695 5.10998 19.9272
6.14514 5.40229 6.77972
4.00409 4.17557 8.11229
5.61754 2.77108 10.6519
6.6706 8.90318 32.7207
5.43836 6.56496 12.4036
6.93944 4.03609 6.64596
6.08148 4.61715 16.6936
7.48063 5.38158 14.8983
2.32378 7.84729 23.1636
7.87723 5.85437 10.5715
5.16487 5.30362 18.0278
6.74098 2.56402 7.93046
3.9866 0.699553 9.32018
8.51727 4.87836 10.2146
6.05797 4.01195 8.17331
6.6969 2.90854 4.80603
3.316 2.42725 10.9154
5.22641 2.34209 9.13706
3.22477 2.15525 4.80228
3.62604 2.10914 7.13162
6.84274 1.2079 2.55202
4.75628 1.07403 5.34563
8.2826 6.39882 19.9482
5.53828 4.9603 9.061
4.42369 2.35453 12.118
5.9924 4.32645 9.11829
6.47165 2.81208 10.8145
7.04182 8.1226 19.5459
2.50774 3.31387 14.7497
4.14018 4.18732 20.0876
5.16077 5.19083 22.5041
5.39549 9.3968 11.2481
4.927 5.53727 10.209
5.57351 4.51295 17.8608
4.55356 4.68568 6.59581
4.55334 0.960731 6.37961
6.90083 9.51353 41.2407
4.42314 10.0366 14.9367
5.74281 0.676501 4.44859
7.95186 6.61851 26.5256
4.63023 7.8257 18.8627
4.68574 5.01612 18.1802
5.77344 4.03807 10.4919
2.4046 7.16911 13.1336
4.86835 4.56434 17.9006
5.6432 6.15185 12.5164
4.41245 4.78764 23.9265
9.24468 4.67091 6.50649
3.81743 3.69119 16.6234
5.93609 1.78164 19.5702
10.0323 9.14069 11.8473
4.79369 2.97593 6.35936
5.14683 4.21315 14.8439
4.06761 6.68935 27.6199
10.0112 2.97288 11.0146
8.17626 2.99686 2.10433
5.75146 7.07261 18.2023
3.98909 5.12834 27.4935
8.84192 8.2003 16.8626
5.5874 5.33939 14.7469
3.54424 2.33436 8.96442
4.07629 1.86418 12.8506
3.20429 5.54281 15.4592
3.48971 2.05531 23.4965
4.97163 8.9654 8.25845
5.04619 5.97929 24.3032
5.17516 5.9494 18.3059
8.85965 2.60017 12.6729
6.58686 3.07376 9.73723
6.9522 3.07909 11.4814
5.53738 2.84325 5.40721
8.32799 5.53651 15.0609
7.07328 3.22751 11.7217
5.25821 3.3459 17.783
4.73286 10.2412 32.1034
5.55766 6.8637 16.1775
8.4064 3.95495 6.3727
2.93847 0.624053 9.2467
7.39375 5.64956 13.1859
3.08518 3.57933 6.46285
4.66936 2.23749 16.6064
3.48646 8.3651 23.6463
9.19908 5.16207 10.1034
3.27316 0.858799 8.91202
3.72202 7.06804 15.2215
3.62233 3.92998 10.0944
2.28606 1.87769 4.88362
5.00898 2.41314 18.1351
6.169 5.35595 26.5267
8.91309 7.72073 15.339
4.08733 3.66798 13.1343
1.79559 4.75985 17.6602
3.4027 4.3675 6.09978
2.7637 2.55727 7.59358
2.32778 11.4361 41.0699
10.9604 5.99525 15.2513
9.34048 9.77511 33.1783
2.45493 2.09183 8.19754
1.62894 4.30875 5.73467
4.32398 5.092 14.8282
4.26946 3.56553 11.8278
3.95718 3.87858 17.5927
8.56173 1.53138 13.2887
8.48124 11.3288 37.0237
4.95011 8.57566 23.3907
8.71021 4.48271 14.3749
4.82818 8.24083 26.118
8.07088 1.00121 16.2617
9.82687 8.69756 14.7418
3.71599 1.82275 8.96584
4.55495 2.05262 3.58734
2.81973 4.84151 14.5742
7.36401 1.56439 3.56245
3.96334 8.37575 29.4923
5.3055 2.17184 21.3032
6.33518 1.96517 8.38927
6.63818 10.2474 24.8338
6.25653 2.79456 13.9778
6.5612 6.22769 25.606
10.2944 9.75826 11.3711
2.62321 4.20147 15.0074
8.30686 9.81138 22.1523
1.81543 5.13028 29.3551
4.70075 3.73275 5.30133
3.07299 3.14917 12.8089
2.42657 6.25723 25.8058
5.3649 4.65854 10.8649
2.65747 6.1203 20.5969
7.27304 3.20674 11.4404
2.87144 9.51234 29.9054
4.50233 5.86319 35.5342
8.68844 9.43788 19.6766
6.01774 2.8703 14.8087
3.69256 7.48801 17.6285
6.7299 2.37828 17.0773
5.35215 6.02198 10.3537
3.55028 6.81373 28.2906
6.21153 3.94674 24.6609
6.94617 8.30572 18.4585
4.50147 3.23581 17.7688
3.54493 4.92166 20.2154
5.51838 6.13832 7.38621
4.05242 2.27648 10.153
5.04079 3.68116 14.223
5.6262 2.3082 4.67877
2.5555 0.53789 5.71321
3.18615 4.76087 12.681
5.64438 3.11317 9.19233
3.97776 2.58089 12.7705
6.90274 4.66824 12.5245
6.76688 5.4572 19.004
4.06045 4.13707 20.313
5.75419 1.11793 5.3746
6.33685 7.2566 16.5692
4.7787 3.17021 22.6221
2.9903 3.0508 5.23428
4.50101 2.27801 8.70206
5.05142 3.31546 3.40836
4.78987 2.94692 9.6551
4.78961 3.87679 10.6511
3.13907 3.59058 27.2819
5.84742 10.353 20.243
4.49169 5.67551 23.248
4.68879 3.28502 11.0497
4.02309 4.66495 20.5791
3.21389 1.57801 12.5174
0.920347 3.61499 19.1189
5.62426 8.20328 16.3277
3.4132 0.920641 12.3538
1.70733 5.8886 11.9614
6.34932 7.17224 18.4374
4.60414 1.41469 2.96886
3.59628 1.88155 11.2248
4.50999 2.00654 10.0135
5.19711 1.56183 2.44437
4.18707 3.41705 10.2842
4.05207 2.338 12.9542
3.03842 4.24257 18.0304
4.44349 5.06095 13.3192
3.39567 0.25179 10.7286
3.49208 8.53756 19.8287
4.52053 1.02222 9.76095
3.0206 5.68803 5.15667
3.79008 2.95007 24.1996
6.76829 5.92877 10.6042
4.31796 2.93127 9.85239
4.67543 1.8297 7.42241
5.45096 3.37225 15.2544
3.16025 5.96701 23.4244
7.84911 2.71572 12.3934
5.94166 2.01826 4.91476
5.94171 2.65651 8.21804
5.13639 2.21614 5.95097
2.85204 4.01747 22.1883
3.44918 4.13135 14.6887
5.21641 3.4778 13.263
6.03113 4.81742 11.7611
4.72822 2.42081 4.70962
3.39752 2.97041 18.4465
6.22076 5.8165 27.559
8.53808 10.1441 23.8052
6.37892 3.67215 15.8198
1.95833 2.85725 7.302
5.57338 3.55998 7.2006
3.48621 5.50473 24.4907
6.00519 3.88397 18.2269
3.56666 6.18539 8.33431
4.34593 4.3677 6.78595
3.00258 4.22252 34.2523
3.26503 6.29706 11.723
5.40166 2.8211 20.6589
4.78902 3.66571 9.80444
2.18474 3.82825 10.6383
5.75531 4.9508 10.4291
5.40255 3.34606 9.5473
4.37816 1.43514 11.7626
3.78815 2.61016 14.6541
1.52731 5.88568 31.4797
7.36957 3.40384 4.17087
6.09778 4.6402 13.766
4.38988 2.63568 22.4202
3.92243 9.98217 35.4942
4.89985 4.34333 8.75363
3.94107 3.10753 15.9644
6.22126 5.85357 29.6604
3.77842 3.47046 11.881
6.29489 6.91531 33.9332
3.90856 6.48865 36.9979
1.50828 11.4951 16.5541
3.29561 4.3527 7.7826
1.94286 6.95751 12.8678
4.58433 4.35267 22.202
6.32769 1.35008 7.32348
3.19769 2.62826 11.763
5.08419 3.5134 6.19306
4.10266 3.72394 31.8629
0.740658 4.55828 8.51171
3.05393 2.60532 22.0347
4.80593 5.20544 7.00022
2.47165 2.79818 9.19429
3.7634 3.69765 8.91296
5.1382 5.14227 11.118
2.90485 2.43504 12.8696
6.63943 8.47033 27.9954
3.0346 0.734832 12.4102
1.11887 3.09942 17.0313
1.40948 9.15823 25.3352
6.93336 6.13873 31.4466
3.03069 7.4627 43.026
8.2573 10.4247 13.883
4.93371 2.09943 8.76766
6.43114 3.19598 15.6798
2.70468 8.09687 14.5201
4.66395 1.42017 19.1537
4.52286 7.86152 17.8032
5.91007 3.07384 22.9046
6.84077 7.10464 20.5752
3.95537 3.88287 7.72645
4.88458 1.86364 24.8346
7.98381 12.7179 38.1583
6.49949 0.66303 12.4344
5.49034 2.82056 8.65668
5.01673 4.57365 13.2163
2.76541 2.40261 2.84938
4.40317 4.89549 9.79421
4.33408 5.09586 44.4812
5.99374 5.06075 8.03068
5.32705 7.32832 22.9947
2.6665 5.84806 16.1004
3.74272 6.71565 18.0273
5.8471 2.36328 17.9127
5.95948 2.26008 6.44018
4.06522 3.25569 21.2552
3.01754 2.20837 14.7583
5.79397 8.36894 12.5485
4.15283 2.99589 6.72538
4.60197 1.42483 12.1697
6.66953 2.81774 19.537
5.92861 6.7337 11.8091
3.34899 4.81529 24.1482
4.22675 3.47346 14.3358
3.04147 3.63499 12.114
1.17869 8.0687 50.0262
6.77098 3.13822 11.2253
5.36561 7.00867 25.2838
5.94686 8.84916 18.4974
3.89675 3.19759 8.25776
5.35769 1.80218 4.20634
2.78793 1.57367 10.9
4.51859 5.0717 11.2867
3.13255 2.87313 10.6962
4.74156 2.56191 14.3542
5.64013 2.48981 15.8512
5.04195 3.99232 13.4861
4.71203 6.24387 38.981
1.60237 6.01407 7.78135
2.08995 5.64638 39.4299
7.95733 8.24595 15.9593
2.1552 1.95258 11.5517
3.17742 2.40589 5.84062
2.90737 1.49091 12.6915
3.49821 5.62889 13.5575
5.33676 6.32652 21.6968
6.11922 5.3903 15.4884
3.76375 3.39196 16.2511
6.80514 4.38559 18.0802
4.34074 0.813275 12.8994
4.15239 3.51183 1.82055
3.58467 1.26872 15.2665
2.9695 3.84987 9.08436
4.94295 1.54825 10.6837
4.26655 4.22003 8.04142
3.22774 4.85434 19.0394
5.73483 6.08401 16.9511
3.89879 1.78606 15.6788
3.27508 1.75616 6.15543
3.75367 9.25062 38.2914
4.81481 2.2934 2.13074
2.76846 4.08848 12.7887
5.36398 0.736407 13.758
7.02211 5.49418 22.0565
4.78987 3.10548 14.5246
2.83071 3.86413 26.6344
3.5564 3.49344 3.47841
2.97169 5.24536 18.9407
3.23573 2.81892 14.16
4.54142 4.24386 9.09819
4.85266 5.11141 17.1148
4.05702 1.35152 6.84612
5.48561 5.91304 25.109
6.21541 2.55282 5.35153
3.88487 1.34382 9.31469
3.21491 5.29887 10.0471
4.58958 4.74559 14.6303
4.62906 4.80925 19.7789
3.32556 3.34969 37.2231
4.34152 2.19465 8.51805
4.36969 2.07684 22.0798
7.3901 7.50631 7.20588
4.40054 2.14536 8.94208
5.76319 7.791 15.6174
2.39064 2.16295 20.1183
2.13629 4.34492 9.81676
3.61711 2.33913 7.74187
3.23449 3.45151 16.5359
2.50139 2.36403 6.11157
3.22558 1.77698 21.1293
3.98924 2.95879 5.85272
2.51462 4.99299 18.7985
3.37617 4.40003 12.1585
2.0853 4.67567 19.2759
3.71891 3.08468 11.1489
4.41323 1.83885 10.201
1.43025 0.898084 12.508
2.09123 1.26831 13.3578
1.48535 6.63476 20.2443
4.47994 1.79205 3.91419
1.74746 4.35625 13.4411
5.12157 4.92608 12.5362
4.06036 3.72587 24.4557
7.82416 3.9334 16.6158
1.81454 3.35018 8.85699
4.718 3.70998 28.9575
4.95601 5.54604 5.34086
3.67716 6.68435 30.6012
4.30663 2.76157 15.7411
4.72989 5.40278 12.8114
5.11945 6.07162 25.5426
4.25381 7.5843 19.9301
1.55788 2.74645 19.3488
3.55205 3.49221 10.5467
4.07254 2.46974 4.68472
2.11462 2.86961 6.67529
4.10133 1.74246 14.756
3.28085 4.08176 12.6763
3.05166 1.23395 10.616
3.41925 2.09188 10.5221
4.72974 1.92701 8.32723
3.20607 3.49648 14.0711
4.58446 3.38109 3.81753
3.78576 2.5247 10.5823
3.37692 4.13817 14.5871
3.66532 5.28137 13.7823
3.88906 3.44192 20.6037
3.9127 5.84553 17.5561
2.51189 3.49784 9.93439
2.51773 2.451 20.4884
4.24286 5.46765 9.76313
4.4004 3.21482 14.2345
4.51767 2.68157 17.2195
6.41532 6.95765 34.8818
6.33789 6.90003 8.76524
2.57093 1.26811 9.13393
4.69848 0.837252 7.30513
3.54214 0.41929 13.6256
3.61514 3.43962 11.7138
3.07989 1.54372 7.97676
3.47669 4.83 10.1484
3.89474 0.856562 2.99459
2.10932 1.77554 10.3548
3.38745 3.39458 12.4252
5.16616 2.90265 11.0413
4.18382 1.87922 22.9861
4.50324 4.44622 12.11
2.72432 1.42402 11.569
3.42032 6.74334 5.71773
3.89258 3.39715 14.4925
1.50247 3.44709 23.6296
4.4996 7.40472 33.7457
5.18172 8.76353 18.6597
5.62592 2.4857 2.50298
2.45241 4.63789 38.8959
5.79557 2.1021 7.05535
3.96682 2.81018 4.18629
4.20466 2.76502 18.0961
3.50502 3.12611 18.8073
7.34332 3.99156 30.1188
5.3337 9.1994 6.16209
2.10422 2.58843 12.4737
4.69719 6.14671 21.3925
3.55569 2.97714 8.91925
4.38481 0.930299 2.26372
3.78629 1.55025 10.4031
2.7073 6.02048 15.3872
4.20389 0.986917 10.4533
3.91784 4.66988 14.6599
4.6376 2.60632 37.3905
5.41478 3.50738 5.63389
3.46574 6.57335 25.3917
5.56249 7.49662 23.4666
2.85259 6.90307 24.5752
2.35807 4.61345 18.6732
5.92083 6.46977 27.1406
5.94806 3.80741 10.5693
3.1697 7.17432 23.1407
4.48912 4.44388 23.6636
5.87997 2.97903 1.45892
2.66889 1.27925 6.39853
2.8808 3.67199 15.6703
4.30304 2.30291 8.55051
4.39383 1.91332 10.0338
5.41487 1.62591 21.4881
5.63633 3.66105 1.24584
3.21827 2.30481 14.4598
4.2005 4.84051 21.7249
4.89165 3.19811 9.12516
3.00538 4.63649 14.3516
2.50393 1.40972 10.4526
3.21564 3.47476 8.09255
4.51483 1.65798 20.7883
3.27045 5.66823 6.16876
4.6309 1.39292 11.3874
5.67818 2.80266 15.6954
1.99693 2.146 14.8976
3.79986 7.93696 19.5727
3.06348 3.84044 29.2819
4.09562 5.45995 10.7372
5.6333 3.3814 18.6059
5.55564 5.46222 15.3562
3.96716 5.1697 11.0519
3.31859 1.33896 16.1694
6.63688 4.93621 22.8544
2.36739 3.22792 8.97237
5.34441 4.36942 16.3344
3.9296 2.23001 10.9472
4.89428 2.84721 13.1719
2.92198 4.32532 17.4221
4.72157 3.92438 7.06456
3.00225 0.832045 6.17799
3.15495 5.18978 43.5383
7.15914 6.05783 6.99956
3.31708 2.06558 8.03471
3.03617 8.10645 45.2224
4.48712 7.16385 14.0399
5.77443 5.08119 29.4082
5.12423 7.07994 16.9816
1.67479 5.24468 20.0535
4.91704 2.50971 6.45774
3.04294 1.94543 9.71749
4.12794 3.09163 19.9551
3.84996 4.12009 12.7234
4.71057 3.0518 11.3191
5.13919 2.4581 9.79407
3.97196 1.12308 11.6509
4.49726 3.2178 6.60137
3.05966 7.16255 22.4552
5.61108 2.85496 6.20435
3.46194 1.31055 15.4187
4.49467 1.30315 20.2466
2.76681 5.92882 14.5131
5.2235 2.07421 13.2234
5.59689 5.15267 11.3575
3.11754 1.78359 0.828787
2.64569 1.80167 13.9298
2.30171 2.48519 11.6572
4.07323 4.02927 10.487
4.25783 3.50077 6.96042
5.29293 4.25813 14.2553
5.77428 0.647924 19.2715
7.02528 5.97635 37.5954
6.8336 11.442 13.8831
2.47209 2.07985 6.26842
3.8696 4.69665 44.5346
5.46742 4.18856 36.4583
5.66808 5.53674 12.1001
3.11023 7.73797 16.4577
4.35346 3.4851 22.7028
4.32715 6.44772 17.675
2.75748 6.6957 7.8721
2.05688 6.68896 56.3414
6.146 5.86217 17.5007
4.29751 7.76779 24.3936
3.72825 0 0