# pn-170911/CsIIA-32-USN3-1280-1959.psd
# Power spectrum* (dif=0,1,2) (really just |FT|^2)
# NOTE: only the first half! (symmetric)
# weeks: 1280-1959
# 913 clock-days, 365 excluded
# PSD: 1441
403842 14.0475 0.0210529
6.42455e+06 55.1878 0.0222903
5.11948e+07 1140.9 0.044377
3.36267e+06 111.718 0.0290395
1.42139e+07 1088.18 0.104001
1.16895e+06 104.003 0.0346511
833564 109.463 0.0388791
622132 110.238 0.0488199
491187 112.635 0.0563261
355065 107.853 0.067101
304532 106.756 0.0687338
249534 108.22 0.0832395
209449 106.773 0.0944411
169385 104.216 0.108863
153862 111.264 0.124414
132037 104.901 0.131748
114058 104.333 0.149676
101673 103.296 0.165286
93003.9 105.788 0.178603
83258.7 107.997 0.210114
79013.8 111.308 0.238085
69544.2 108.436 0.250804
59542.4 100.788 0.25478
59968.4 111.155 0.305903
53694.7 112.411 0.325749
45471.3 104.895 0.326958
47690.8 113.973 0.385434
41825.2 112.624 0.411234
38101.9 108.758 0.421218
38163 122.878 0.518446
33935.9 110.273 0.490918
33907.8 118.514 0.564741
31741.9 121.179 0.607903
28493.4 111.823 0.607523
27286.1 119.892 0.6772
26692.8 116.758 0.705579
24535.1 113.236 0.721068
23310.2 115.662 0.773738
22209.4 114.118 0.798056
19910.2 103.539 0.763695
21506.7 121.468 0.941715
18320.7 112.194 0.903383
17496.1 109.538 0.935533
17559.9 118.363 1.05447
16307.6 118.508 1.11719
14824.8 109.198 1.07967
14701.7 116.756 1.18685
14118.3 114.047 1.2197
14227.4 116.661 1.30584
13367 116.338 1.34503
13065.9 120.278 1.44658
12651.3 118.642 1.48313
11623.3 114.374 1.48248
11883.8 122.569 1.63392
11665.2 122.453 1.70636
10861.8 117.324 1.67938
9731.87 111.148 1.65437
9437.58 108.414 1.68721
9617.48 117.487 1.8869
8869.66 109.684 1.83336
8985.31 115.916 2.00972
7723.86 103.823 1.8348
8140.28 110.67 2.03541
7579.16 113.298 2.12817
7449.48 107.021 2.11081
7537.6 114.533 2.29923
7521.55 112.516 2.33927
6568.47 103.615 2.19308
6544.51 108.476 2.37947
6424.98 109.027 2.48514
6046.06 108.065 2.51101
5760.79 102.471 2.47584
5799.56 107.199 2.62825
5745.48 110.531 2.79078
5589.17 108.386 2.80807
4905.61 100.008 2.67849
4940.5 99.2218 2.72399
4916.82 101.247 2.85777
5039.92 107.99 3.10945
4774.31 102.61 3.04393
4355.44 95.42 2.88218
4011.99 92.1362 2.87865
4327.67 98.1853 3.12855
3931.2 91.4087 2.96608
4170.95 96.9438 3.23045
3667.85 94.9537 3.27052
3693.58 96.2197 3.35436
3505.8 93.0836 3.33674
3645.26 93.8497 3.43803
3603.1 99.5067 3.7262
3212.6 88.6394 3.38308
3080.46 89.4818 3.50135
3246.81 91.5657 3.6588
3093.98 88.1965 3.61473
2879.8 83.6982 3.49523
2856.4 88.2223 3.77709
2741.47 84.6925 3.70232
2731.29 83.9351 3.71336
2723 85.3809 3.91399
2628.25 85.8731 3.96706
2707.74 89.3975 4.23534
2553.12 87.534 4.2128
2459.8 85.7189 4.24768
2374.73 80.8484 4.05829
2327.19 80.9642 4.16784
2214.09 77.5866 4.05967
2184.57 79.4502 4.23042
2202.21 84.6917 4.56139
1973.68 74.8222 4.10878
2056.85 79.1522 4.44708
2049.04 81.6249 4.69471
1853.69 71.7207 4.17788
1945.08 77.4508 4.57702
1849.83 70.9646 4.30875
1855.06 78.2392 4.7674
1751.67 70.0168 4.41481
1625.03 69.439 4.41661
1638.1 69.5664 4.49313
1600.51 68.2194 4.47734
1439.4 65.2267 4.36431
1584.96 72.8993 4.96089
1436.04 64.8203 4.50936
1440.24 64.3073 4.49056
1460.98 67.4585 4.7969
1413.86 65.5801 4.7702
1405.71 64.7151 4.80101
1323.43 60.232 4.50516
1343.91 62.8356 4.80422
1294.14 62.5061 4.84473
1207.26 59.2504 4.65777
1199.01 59.5502 4.75515
1283.17 62.5949 5.11141
1197.43 61.9902 5.10868
1181.34 62.2864 5.17503
1121.43 62.7611 5.25862
1028 57.9381 5.01579
1086.32 58.8553 5.14057
1084.15 59.3409 5.23754
1003.86 54.5677 4.86939
1018.14 55.2906 5.00035
1029.29 55.8851 5.15086
918.396 51.4572 4.81426
981.656 56.323 5.34921
943.105 53.3637 5.13444
883.62 56.5339 5.49051
904.553 53.9629 5.39395
833.961 49.5189 4.98269
890.075 52.616 5.3567
880.206 53.913 5.56287
838.808 49.3466 5.12139
799.775 49.7013 5.25717
822.69 51.7106 5.56553
765.399 49.9263 5.43433
774.128 47.8277 5.26404
750.304 50.3665 5.65674
766.721 50.5345 5.75087
723.502 48.2857 5.59695
692.484 42.9074 5.00259
691.409 47.0875 5.51833
682.245 45.2179 5.41266
703.029 48.0445 5.743
680.482 47.0497 5.69412
700.79 45.2092 5.57516
662.952 45.067 5.58828
633.248 43.6707 5.52404
624.856 46.7091 6.00812
585.453 40.8192 5.30161
613.157 42.2536 5.51954
611.174 42.4108 5.66694
586.394 41.6608 5.5557
578.289 42.0368 5.70045
557.36 40.3408 5.54239
538.922 39.5082 5.54139
533.18 40.6752 5.73438
542.955 38.8056 5.49878
530.963 39.8263 5.72408
532.985 39.9689 5.76678
520.582 39.2284 5.71644
540.424 40.8623 6.02899
498.143 37.6557 5.69922
507.877 37.7526 5.75585
473.965 37.7942 5.81715
470.144 38.4715 5.97796
460.591 37.7811 5.94735
446.398 34.8359 5.52748
457.164 35.8362 5.67305
477.106 37.5354 6.0865
454.538 35.1221 5.75311
438.302 35.1134 5.81088
426.659 36.9208 6.12444
420.794 35.2906 5.9711
425.896 36.3738 6.30434
435.862 35.5765 6.13631
385.796 31.5585 5.49892
392.998 33.041 5.82824
400.08 34.126 6.10691
413.002 33.8828 6.06107
407.628 34.9857 6.33434
380.994 33.431 6.09217
373.556 32.5414 5.99751
356.607 32.0232 5.98275
367.97 31.8429 6.0329
357.746 32.2543 6.13046
357.186 30.9035 5.98855
361.988 31.2846 6.04703
337.517 31.7515 6.2789
350.379 31.5264 6.25202
338.072 30.5349 6.14301
339.876 29.8387 6.04021
327.331 29.1893 6.00896
322.243 31.628 6.46236
329.154 30.9957 6.38689
300.107 27.1691 5.76057
316.382 29.3867 6.23163
299.273 28.8535 6.16802
297.998 27.5275 5.87608
290.879 27.4543 5.95583
303.715 28.5619 6.26265
286.164 25.8528 5.73068
291.811 28.2421 6.33475
291.134 26.7099 6.03624
287.504 27.4878 6.26433
281.549 26.555 6.12478
282.897 27.2327 6.31015
284.785 26.2788 6.04189
269.328 26.9564 6.39202
274.756 26.4713 6.23381
269.528 25.745 6.22542
263.671 25.5094 6.18752
244.285 25.412 6.14329
249.379 26.5905 6.62526
243.347 24.3545 6.03666
255.282 26.1275 6.55626
250.348 24.384 6.18298
239.959 23.1577 5.87366
240.443 24.6787 6.33781
236.918 23.9731 6.22117
231.222 23.9882 6.21515
227.376 22.8796 5.99574
225.001 24.0279 6.40416
225.136 23.4801 6.29586
224.283 21.9046 5.86896
219.429 23.1346 6.29695
212.358 22.986 6.28008
219.439 23.8804 6.58141
219.273 23.5033 6.55033
202.698 22.7092 6.35614
210.61 21.6184 6.10145
200.206 21.9302 6.17925
191.678 20.2095 5.85923
195.413 21.1191 6.19427
210.32 22.3071 6.56765
207.246 23.1114 6.73091
203.194 22.0891 6.53893
198.7 22.0923 6.621
183.84 19.9715 5.92087
188.083 20.6486 6.26677
194.454 21.7652 6.67755
197.03 21.2022 6.438
195.287 20.7448 6.4853
184.979 21.2339 6.605
181.907 20.4878 6.49095
173.313 18.944 6.05672
173.349 19.0047 6.07038
171.365 19.4426 6.29474
169.221 19.1636 6.19326
176.449 20.6469 6.68412
164.882 18.9915 6.28408
172.633 20.4473 6.7275
171.299 18.787 6.36362
164.485 19.2117 6.37273
160.803 18.8879 6.44855
163.626 18.8532 6.39145
159.92 19.144 6.58865
159.044 18.1308 6.23039
157.075 18.049 6.21862
157.507 17.2981 6.08898
155.421 17.5558 6.23864
156.677 18.0777 6.45896
148.505 17.8848 6.47367
150.447 17.9556 6.53384
151.301 17.9022 6.47589
144.487 16.9892 6.17167
153.452 17.5542 6.45561
141.032 17.8668 6.63863
147.7 17.6739 6.66763
143.352 17.2338 6.57336
145.62 16.7819 6.30027
146.427 17.6079 6.66562
138.788 18.5174 7.08782
141.123 17.4158 6.76326
132.498 16.6982 6.45557
136.646 16.996 6.71202
132.837 16.6343 6.59399
137.516 17.2096 6.7702
130.164 16.716 6.65071
136.649 16.613 6.79468
130.035 16.0561 6.48308
126.579 16.8007 6.80325
128.998 15.4362 6.27677
128.898 16.7578 6.96261
127.809 15.8502 6.46711
127.684 15.4423 6.48771
122.213 15.9249 6.74031
121.062 14.4608 6.12919
126.267 14.5947 6.20321
120.099 16.1046 6.74276
125.872 15.3602 6.67808
118.268 16.044 6.87116
124.044 15.8704 6.92309
118.022 14.4902 6.47208
120.792 14.5389 6.48316
116.712 14.6177 6.42003
114.09 14.2329 6.40874
115.264 15.8502 7.14276
109.479 14.2311 6.40757
117.298 14.9731 6.63865
100.474 13.3877 6.24605
111.616 14.6565 6.70817
111.301 14.59 6.83543
107.764 13.3481 6.22426
106.553 13.1095 6.12077
107.435 14.3143 6.71707
110.535 13.8949 6.60422
108.75 14.9137 7.17903
105.055 13.5909 6.55046
101.553 14.2334 6.87217
108.674 13.5013 6.58348
102.53 13.1373 6.43504
103.8 14.0722 6.95663
102.646 13.2298 6.59784
94.4311 12.6885 6.44791
97.0786 13.0184 6.42255
96.6637 13.0508 6.55578
98.432 12.9217 6.6194
97.1036 12.9669 6.60888
101.137 13.0618 6.71045
98.6676 13.0494 6.5882
98.1068 13.3697 6.92989
96.1226 12.7795 6.6926
94.6671 12.656 6.61518
94.5267 12.9034 6.80301
91.9372 12.2377 6.41041
92.5996 12.7557 6.87955
93.3813 12.1983 6.44522
92.3406 13.2968 7.09149
91.4315 12.3156 6.61823
92.4472 12.9878 7.16306
90.2181 12.2213 6.61836
89.4427 12.0279 6.71801
86.5086 11.892 6.42721
87.4986 12.6385 7.00396
89.8899 11.7414 6.67202
86.6329 11.8228 6.62306
90.7423 11.8545 6.69446
85.3552 11.4988 6.45581
84.1842 11.6387 6.79558
85.9276 11.9251 6.78477
85.2368 11.4585 6.66702
83.0595 11.7873 6.86232
82.6087 10.8373 6.2984
77.9984 10.6842 6.40776
84.5443 11.3382 6.66088
80.8311 10.9265 6.4894
81.4992 11.2605 6.6742
76.7312 10.4567 6.34687
77.1908 11.1721 6.72353
78.8632 11.0655 6.77192
77.7629 10.3652 6.32423
81.6179 11.4057 7.04896
76.3489 10.4937 6.34378
77.2447 10.9863 6.83036
75.2835 10.7879 6.61729
77.8992 10.5269 6.55719
76.3504 10.4845 6.67971
78.3696 10.7818 6.6558
73.4031 10.0798 6.41816
74.9619 10.4881 6.73931
70.9939 10.2982 6.59344
72.0367 9.91894 6.39512
72.9493 10.0296 6.44942
71.7179 9.99338 6.42912
69.974 10.4682 6.98735
74.83 10.1397 6.54139
69.1579 10.3608 6.94149
68.9 9.99939 6.68628
70.1788 9.79746 6.49317
69.5049 9.9264 6.67609
68.5165 9.89951 6.66895
69.875 9.84793 6.64337
68.507 9.8992 6.71774
69.8305 10.1154 6.86037
66.2819 9.47731 6.61768
65.6157 9.66464 6.51598
67.5474 9.93309 6.91332
66.4652 9.50158 6.62305
63.6038 9.51711 6.70656
64.6471 9.63431 6.7641
65.8672 9.35814 6.59901
64.426 8.86434 6.38238
64.1069 10.2161 7.16036
65.3621 9.64106 6.94848
62.4192 8.9311 6.55103
65.2309 8.84121 6.38164
62.8506 9.23123 6.87701
65.1845 9.38933 6.73821
63.1988 9.54533 6.97613
62.3636 9.20587 6.77082
62.7432 9.01184 6.68733
60.6652 8.90815 6.55471
63.0757 9.39927 6.99531
61.6342 9.13367 6.81407
61.7114 8.74726 6.64013
59.6338 8.5978 6.52813
59.2898 8.88591 6.75484
59.8291 9.40783 7.12002
58.1283 8.51058 6.46879
57.7232 8.67307 6.52307
60.27 9.26238 7.07125
58.2369 8.94497 7.00481
58.9882 8.70902 6.75628
56.459 8.43775 6.66851
58.3309 8.52257 6.54705
56.4431 8.3497 6.65413
57.4999 8.59008 6.75426
56.8908 8.45495 6.7306
54.3732 8.53034 6.88886
55.1141 9.09388 7.25882
55.4017 8.3197 6.67337
55.021 8.48228 6.97774
53.6948 8.8523 7.10352
55.3537 7.83839 6.45634
54.6476 8.03496 6.57285
53.8779 7.91714 6.4662
54.5382 7.89731 6.61887
52.934 8.06562 6.67543
52.591 7.84402 6.56243
52.865 8.36409 7.0805
53.5511 7.83779 6.66188
52.7733 8.10688 6.77285
50.8997 7.80757 6.64112
52.6194 7.48438 6.47458
50.8586 7.70502 6.58871
51.0805 7.45391 6.34566
49.7182 7.98534 6.91005
51.7352 8.09501 7.06661
51.7264 7.88535 6.8199
51.4408 7.81643 6.88807
49.4213 7.89781 6.81067
49.1948 7.48535 6.60839
50.6831 8.12535 7.16775
49.2669 7.46299 6.63346
49.0408 7.41072 6.53346
49.4404 7.91569 7.20398
48.4238 7.14738 6.27988
48.8002 7.16041 6.65472
46.492 6.95346 6.28812
49.0812 7.69589 6.96913
48.8655 7.37756 6.91265
48.5241 6.96996 6.30933
46.3473 7.37412 6.83666
47.2519 7.67428 7.07427
46.7223 7.43582 6.78251
46.3034 7.479 7.15332
46.9941 7.41584 6.93552
46.3484 6.90062 6.37979
46.3125 7.57822 6.98312
43.1929 7.11413 7.07442
44.2624 6.81917 6.44351
46.5288 6.84785 6.5962
45.7438 6.90997 6.62087
45.3131 6.6747 6.53801
44.3618 7.41841 7.10446
44.6083 7.02669 6.67627
44.7536 6.87989 6.7434
44.0941 6.85263 6.68031
43.5126 6.95137 6.98198
43.9009 6.6329 6.35313
45.184 7.12242 7.07421
43.0019 6.93616 6.81232
41.9379 6.57214 6.54987
42.3197 7.08861 7.07303
44.0034 6.65776 6.69301
42.7002 6.82512 6.97031
42.5775 7.00385 7.0948
41.8751 6.43886 6.63365
43.1378 6.62813 6.67561
41.4608 6.56886 6.89043
42.1859 6.62623 6.69919
41.5968 6.52594 6.66031
41.2222 6.21515 6.48153
42.5408 6.19622 6.31227
41.4567 6.55438 6.79913
40.0987 6.46563 6.59581
40.885 6.57752 6.87755
39.2818 6.31648 6.79555
40.6616 6.28326 6.751
41.0601 5.95181 6.13431
39.1164 6.55572 7.09326
40.3683 6.62957 7.10006
39.5757 6.28725 6.61778
38.4676 6.29088 6.82727
40.3182 6.24205 6.72547
40.5581 6.07603 6.54052
39.1741 6.36827 6.95018
38.5118 5.90201 6.35527
38.9645 5.91119 6.60671
38.3955 6.23578 6.98838
38.8622 6.24026 6.69624
38.6681 5.86206 6.53674
39.0078 6.12613 6.77543
39.3476 5.98344 6.55672
37.5589 5.90929 6.77448
38.3992 5.94213 6.70779
37.0564 5.79331 6.36936
36.9129 5.75148 6.43144
36.9021 6.12727 7.01397
37.5164 5.95052 6.8571
37.5727 6.12315 7.08702
36.5842 5.29139 6.08
36.5455 5.70755 6.56274
36.3391 5.54751 6.37214
35.7342 5.6016 6.4653
36.6943 5.78576 6.64581
35.9492 5.83701 6.69489
36.4621 5.78747 6.76438
35.882 5.48476 6.49757
35.6086 6.09932 7.34932
35.7665 5.83111 6.82049
35.5967 5.4643 6.65749
35.4228 5.64953 6.61943
35.6781 5.49752 6.50383
36.0876 5.62206 6.91749
34.5462 5.63823 6.83847
35.0996 5.43065 6.59908
34.487 5.51635 6.59094
35.0554 5.55429 6.67712
33.9351 5.62118 6.92633
34.3919 5.47868 6.67394
35.2232 5.76151 7.00462
33.2742 5.52674 6.68405
34.1493 5.20388 6.56285
33.3792 5.62469 6.81424
33.0106 5.44083 6.80965
32.6466 5.34034 6.58754
33.213 5.30263 6.67177
33.2187 5.25341 6.54227
32.9781 5.37141 6.84532
32.7109 5.41058 6.82071
33.1419 5.33255 6.71812
31.9791 4.9617 6.46753
32.4917 5.07013 6.48992
31.9907 5.09312 6.49214
32.2387 5.64316 7.14702
31.1696 5.13521 6.61556
31.6887 5.1844 6.61551
32.4832 4.8535 6.35556
32.681 5.18913 6.84277
31.8302 4.72588 6.22794
30.502 5.06254 6.62548
32.2668 5.08376 6.50989
31.8919 5.05444 6.70731
30.6936 5.07194 6.72321
31.1371 5.12521 6.69993
31.6979 5.20985 6.98576
31.6124 5.24165 7.05874
31.9333 5.08806 6.83912
31.0066 5.09254 6.97983
30.3482 5.2239 7.01084
31.5876 5.19266 6.85684
30.6497 4.89696 6.5682
30.3952 5.07568 6.78666
30.6537 5.0632 7.05663
30.9595 5.06092 7.02473
29.5506 5.03502 6.67235
30.4257 4.92856 6.71662
30.3926 4.71648 6.68654
28.798 5.41144 7.44824
30.0381 4.94926 6.70572
29.9788 5.26208 7.39896
29.2727 4.89162 6.71523
29.75 4.86695 6.90698
30.1075 5.07628 7.27131
30.228 4.98197 6.87968
30.0322 4.84706 6.94273
30.3416 4.94109 6.89894
29.5778 4.92341 7.10713
29.9219 4.84406 6.99038
29.7699 4.8149 6.49896
28.4583 4.48408 6.76434
28.5784 4.66796 6.46849
28.0286 4.73317 6.85963
28.7377 4.57112 6.54152
28.931 4.44514 6.40097
28.2994 4.56791 6.73125
28.5798 4.57158 6.74793
28.4796 4.67671 6.81329
27.8633 4.41658 6.44186
28.9278 4.60586 6.97711
29.6425 4.46509 6.52671
28.0652 4.59691 6.7853
29.0573 4.77385 7.2049
27.2398 4.52256 6.45274
27.4518 4.34288 6.48253
27.9424 4.28169 6.37922
27.2504 4.1068 6.44264
27.58 4.49518 6.49081
27.5277 4.54366 6.82869
27.1388 4.6426 7.17265
27.7656 4.40692 6.46007
26.9244 4.25314 6.52371
27.2698 4.4991 6.85294
27.1925 4.42534 6.79259
26.3032 4.45242 6.89497
27.175 4.2244 6.43703
26.7172 4.19654 6.49521
26.6836 4.16603 6.5889
27.0747 4.59248 6.96309
26.8142 4.39467 6.84314
26.4417 4.43636 6.74546
25.535 4.48706 7.13402
26.028 4.12422 6.38695
26.2809 4.3124 6.8333
25.476 4.19551 6.46777
26.4366 4.22094 6.65745
25.6028 4.22616 6.79249
25.5625 4.44257 6.90849
24.9654 4.08121 6.60297
25.6808 4.24835 6.73789
26.1147 4.23245 6.93791
25.5555 4.16173 6.58683
25.5538 4.33991 7.04564
25.0659 4.29187 6.7618
25.0026 4.14857 6.84597
24.9704 4.25763 7.01475
25.5094 4.1053 6.66443
25.4457 4.067 6.66428
25.0109 4.06627 6.79027
24.6163 4.17146 6.55745
24.6273 3.94699 6.67764
25.0761 3.95672 6.42364
24.7663 3.94632 6.58665
25.563 3.92106 6.46976
25.0639 4.02274 6.85553
24.3053 4.06872 6.70503
24.78 3.78542 6.42938
25.4068 4.0663 6.63522
24.2946 3.71119 6.22765
24.4071 3.86186 6.45727
23.7801 4.0667 6.87857
24.0698 4.0511 6.81177
23.9551 3.80861 6.4972
24.2832 3.79522 6.64227
24.519 3.85061 6.42053
24.352 3.94437 6.94126
23.6487 3.89055 6.63979
24.3375 4.07957 6.7341
23.2528 3.87482 6.73129
22.8494 3.90876 6.82458
23.6791 3.6456 6.22893
23.3438 4.10221 7.06166
23.2917 3.82611 6.7532
23.5674 3.7826 6.54442
23.2355 3.6964 6.74848
23.4316 3.83927 6.57678
23.3363 3.73792 6.61854
23.5799 3.95899 6.94351
23.7778 3.69735 6.57441
23.0599 3.93388 6.89148
23.2574 3.77366 6.62979
23.3082 3.82539 6.64526
22.5914 3.7178 6.69471
22.6053 3.74148 6.87981
22.6405 3.752 6.62578
21.9295 3.6026 6.52681
22.4704 3.56532 6.423
22.4142 3.88826 6.98878
23.1177 3.59466 6.49678
22.7401 3.77547 6.87052
21.7716 3.63294 6.69335
21.8977 3.7818 6.81186
22.1543 3.60544 6.55041
21.8663 3.89993 6.95448
22.553 3.53686 6.94568
22.4196 3.71571 6.69288
22.7552 3.62999 6.70973
22.4368 3.69229 6.87097
22.6075 3.72943 6.76828
22.0832 3.4778 6.52215
21.6332 3.5341 6.54565
22.4455 3.45769 6.50246
21.8484 3.49781 6.29784
21.1212 3.6606 6.83783
21.5966 3.41506 6.57206
22.3159 3.51257 6.56665
21.8346 3.66068 6.63617
21.5737 3.62621 6.81234
21.2094 3.31452 6.46523
21.079 3.58304 6.79465
21.3111 3.49759 6.54538
21.5184 3.58614 7.00413
21.4902 3.29438 6.25202
21.4271 3.58975 6.82862
21.3179 3.62801 7.26305
21.2257 3.684 7.07046
21.2512 3.47851 6.49335
21.3918 3.45006 6.61011
20.6463 3.49778 6.72345
20.6975 3.37108 6.72855
20.5923 3.46335 6.63547
21.2774 3.35137 6.66483
20.736 3.53351 6.79953
20.7064 3.49132 6.70547
20.7562 3.48742 6.82235
20.356 3.21217 6.41316
20.053 3.49283 6.93944
20.2116 3.44069 6.66004
20.3303 3.38487 6.69282
20.7145 3.15522 6.35574
20.3496 3.35437 6.67181
20.3098 3.32622 6.71706
20.1024 3.26484 6.48303
20.4468 3.28591 6.7165
20.301 3.28934 6.60837
20.4953 3.37783 6.70688
20.129 3.27507 6.75544
20.2489 3.29801 6.5222
20.0061 3.339 6.66248
20.0804 3.2639 6.67072
19.8482 3.41541 6.86474
19.9986 3.29047 6.73715
19.8037 3.3738 6.9641
19.727 3.3754 7.02708
19.698 3.20854 6.54081
19.152 3.40683 7.0108
19.6551 3.39217 6.80177
19.2502 3.33002 7.14031
20.2467 3.46094 7.00634
19.6035 3.35958 7.03086
19.2863 3.31 6.71503
19.1354 3.29559 6.88586
19.7859 3.20531 6.71684
19.1185 3.217 6.63087
19.1693 3.16767 6.92968
19.3093 3.23759 6.52555
19.2554 3.27173 6.72869
19.3704 3.09177 6.57881
19.366 3.25914 7.04284
18.8848 3.38243 7.00244
19.7411 3.27456 6.96731
18.5086 3.03678 6.44857
18.359 3.33409 7.02075
18.8177 3.12664 6.54839
18.4277 3.15393 6.84684
19.3941 3.03898 6.54053
19.3941 3.10872 6.74307
18.5504 3.1772 6.72389
18.665 3.19069 7.01532
18.4801 3.08622 6.7394
18.8478 3.13747 6.62051
18.5833 3.12184 6.83308
19.0173 3.2747 6.77118
18.0702 3.15702 7.02134
18.6438 2.96294 6.70769
18.5117 3.11686 6.59151
18.0374 2.86657 6.47174
18.2253 2.83943 6.36725
18.3323 3.46784 7.27215
18.3129 3.0544 6.682
17.9699 3.12685 6.87093
18.2161 2.93721 6.56326
18.0198 2.87962 6.60789
18.1884 3.14787 7.05315
18.1791 3.08802 6.6859
17.6889 3.0231 6.80717
18.0421 3.24133 7.02079
18.1009 3.10013 6.97531
18.5108 2.9937 6.84575
18.2342 3.14206 6.75062
17.7166 2.83476 6.43905
17.9511 2.85833 6.73886
17.66 3.04912 7.08083
18.0053 2.99037 6.63635
17.4224 2.83122 6.57585
17.6675 3.09451 6.92769
17.9 3.09708 6.98151
17.4999 2.93363 6.7703
17.1086 2.89973 6.5771
17.9742 2.99764 6.79352
17.392 2.95517 6.79258
17.5214 2.8984 6.71676
17.2253 2.97739 7.00421
17.183 3.06963 7.05884
17.1468 2.93624 6.45776
17.421 2.87142 6.78806
17.2232 2.9028 6.7519
17.4644 2.90809 6.81195
16.695 2.84978 6.6559
17.2523 3.13937 7.41448
16.6537 3.03744 7.05108
17.1594 2.84245 6.60003
16.7583 2.94273 6.87201
17.1141 2.71347 6.39293
16.5886 2.95004 6.95155
16.8888 2.96143 7.07449
16.9998 2.84962 6.84329
17.049 2.73061 6.18886
16.5859 2.74918 6.61223
16.7877 2.82733 6.47104
16.5988 2.98227 6.97865
17.0689 2.89564 7.16677
16.2448 2.75741 6.50221
16.4839 2.91871 7.10469
16.8954 2.79186 6.9091
17.1655 2.99298 6.88718
16.8964 3.01133 7.16251
17.0013 2.80315 6.8114
16.4228 2.90947 6.98743
16.5612 2.8249 6.73198
16.3321 2.74016 6.59991
16.1902 2.80404 6.90727
16.4962 2.86791 6.89594
16.1997 2.91763 7.33102
15.991 2.7255 6.35146
16.3865 2.69458 6.74039
16.4859 2.85939 6.96774
16.1033 2.80003 6.85512
15.8831 2.84266 7.11026
15.9927 2.77943 6.68753
16.0687 2.78654 6.82203
16.1451 2.79408 7.13164
16.3093 2.79225 6.88772
16.2375 2.76684 6.76715
16.2795 2.72493 6.80581
15.7908 2.90456 7.10182
15.5693 2.77713 7.16165
16.1171 2.92011 7.18365
15.738 2.82095 7.01037
15.9846 2.68411 6.91926
15.7075 2.77705 6.81967
15.7781 2.72178 6.93204
15.9311 2.75934 7.11994
15.742 2.83479 7.04228
16.2345 2.87627 7.07494
15.568 2.79016 7.12675
15.4954 2.87924 7.26866
15.5109 2.84102 7.34994
15.8943 2.84112 6.99859
15.7618 2.75946 7.03944
15.7166 2.88848 7.54891
15.6718 2.75779 7.08545
15.7847 2.83463 7.32003
15.5242 2.88851 7.07014
15.2741 2.78853 7.37679
15.3589 2.72969 6.93128
15.5082 2.81003 7.39896
15.2974 2.83731 7.30038
15.4489 2.85257 7.30234
15.3528 2.92387 7.7816
15.3961 2.78316 7.16241
15.3079 3.12013 8.13238
15.8331 2.9507 7.83943
14.8034 3.36256 8.42669
15.3132 3.13233 7.96612
15.3804 3.09452 8.58351
14.9043 3.45285 8.86218
15.3625 2.96174 7.38093
15.4721 2.88658 7.40463
15.4572 2.66369 7.14761
14.9203 2.71679 7.30331
15.1454 2.76882 7.07371
14.6069 2.71023 6.98694
14.5019 2.55515 7.12769
15.1793 2.9276 7.60424
14.8171 2.78093 7.47069
14.6971 2.63357 6.95235
14.8036 2.64699 7.66458
14.7804 3.33635 8.27295
14.7253 2.67633 6.9935
14.8277 2.68816 7.25757
14.6852 2.75081 7.40073
14.5153 2.50155 7.10208
14.5212 2.54883 6.9215
14.5265 2.58624 6.75031
15.3817 2.72231 6.97529
14.7026 2.60043 7.13688
14.8056 2.6573 7.40841
14.3652 2.70781 7.29307
14.5091 2.68806 7.06524
14.3927 2.53471 6.9222
14.3764 2.58061 7.13333
14.2431 2.59466 6.99962
14.3924 2.70044 7.0684
14.2247 2.57249 7.28316
14.4737 2.52039 6.90294
14.2876 2.6364 7.1562
14.3254 2.56083 6.99886
14.1623 2.49239 6.63614
14.4329 2.61538 7.34944
14.2379 2.60872 7.32254
14.478 2.59666 6.93508
14.2392 2.68868 7.3556
14.0667 2.49493 6.97215
14.1045 2.57616 6.98028
14.0418 2.4427 7.008
14.0983 2.53475 7.22272
13.8047 2.61563 6.97535
14.1669 2.58563 7.06767
14.1615 2.33136 6.92846
14.3579 2.51561 6.96571
13.8257 2.56667 6.99396
13.9044 2.41989 6.5944
14.1617 2.49621 7.06708
13.9463 2.44718 7.38191
13.759 2.48595 6.53472
13.8553 2.51594 7.19902
13.9228 2.46539 7.18021
13.9055 2.62611 7.71332
14.0399 2.51013 6.9701
13.7834 2.4131 6.7415
13.5051 2.4318 6.9625
13.8391 2.46588 6.92508
13.5803 2.52528 7.09888
13.5489 2.4187 7.33999
13.6993 2.56072 6.97514
13.6893 2.51844 6.8879
13.2291 2.50823 7.20006
13.6189 2.30827 6.61932
13.7154 2.39125 6.94856
13.6749 2.51806 7.04315
13.6442 2.42873 7.12971
13.4424 2.45014 7.23171
13.528 2.56673 7.21509
13.7506 2.5792 7.33439
13.3664 2.33693 6.95583
13.2681 2.3818 6.951
13.5484 2.43046 6.96384
13.5058 2.40571 6.88114
13.3285 2.22638 6.82462
13.0277 2.51781 7.17246
13.4977 2.34636 6.76938
13.5394 2.37756 6.92946
13.3276 2.28783 6.60431
12.9614 2.30672 6.81876
12.9918 2.39109 7.01955
13.027 2.34044 7.46706
13.2143 2.50468 6.97381
13.1594 2.3583 6.92545
13.2597 2.35159 6.94967
12.9081 2.35335 6.8854
13.1916 2.32309 6.92483
13.0595 2.54184 7.49275
13.1037 2.39385 7.13524
13.0494 2.42429 7.15268
13.1825 2.32344 6.64393
12.9121 2.34293 7.08733
13.118 2.32339 6.80083
12.9915 2.37641 7.10879
13.1083 2.40181 7.27244
13.224 2.52249 7.4075
12.8385 2.44631 7.39222
12.8288 2.45447 7.12245
12.9978 2.37887 6.95301
12.8656 2.52962 7.84944
12.9692 2.36783 7.08593
13.1087 2.45626 7.17422
12.8938 2.24244 7.13145
12.9887 2.35022 6.84438
12.8564 2.34832 7.03067
12.8684 2.28017 7.10339
12.6899 2.09092 6.55552
12.7967 2.2744 6.51406
12.9281 2.3408 7.41658
12.8756 2.4395 7.27596
12.5741 2.4102 7.25504
12.3728 2.23854 6.94154
12.7411 2.39655 7.21605
12.5806 2.31901 7.09967
12.8146 2.32307 7.31287
12.6172 2.22228 6.78205
12.6895 2.28388 7.24075
12.672 2.34977 7.14254
12.709 2.39105 7.14562
12.453 2.36702 7.28459
12.6188 2.37616 7.5949
12.5381 2.26937 6.91123
12.6311 2.39342 7.27633
12.4047 2.26601 7.02344
12.4729 2.29452 7.47408
12.645 2.23409 6.91294
12.5922 2.25443 7.21473
12.7994 2.41112 7.20708
12.425 2.38401 7.43806
12.5138 2.27648 6.6062
12.1723 2.2595 7.31268
12.3971 2.26178 7.22442
12.4045 2.32674 7.10561
12.4811 2.22849 7.16028
12.448 2.32543 7.06092
12.3706 2.26138 7.38495
12.5307 2.38908 7.25842
12.3173 2.25918 6.96321
12.4084 2.38023 7.67532
12.449 2.41392 7.48637
12.2101 2.16543 7.02039
12.2545 2.30166 7.46068
12.1537 2.35817 7.21697
12.0312 2.31613 7.42453
12.2244 2.26034 7.09777
12.2694 2.29914 7.36933
12.0273 2.32466 6.84909
12.1034 2.23916 7.17804
12.2246 2.12306 7.01833
11.9791 2.22006 7.38231
12.0649 2.37632 7.35835
12.1755 2.22983 6.8491
12.3448 2.22835 7.24403
12.1262 2.18249 7.1707
12.0474 2.26748 7.20861
12.0988 2.14115 6.60359
11.9886 2.14908 7.24612
11.9693 2.36922 7.54298
12.1299 2.2891 7.01247
12.1679 2.20385 7.61716
12.2635 2.18578 7.28834
12.1621 2.22133 7.11427
12.0525 2.21673 7.24296
11.6823 2.24377 7.02921
11.9053 2.28202 7.07765
11.6683 2.32257 7.56243
11.9513 2.29285 7.59769
11.9917 2.15694 7.0796
11.7197 2.13578 6.91637
11.9227 2.23622 7.28887
12.0624 2.20521 7.38857
12.1217 2.36384 7.68264
11.5191 2.15022 7.00595
11.7454 2.3743 7.6699
11.7759 2.1697 7.05225
11.6581 2.20301 7.37602
11.8569 2.25897 6.99065
11.7446 2.19497 7.57789
11.52 2.28315 7.49591
11.8155 2.24163 7.49637
11.7062 2.09009 6.88696
11.7661 2.27055 7.24234
11.6403 2.28131 7.50713
11.8538 2.08814 6.90162
11.6218 2.1576 7.52889
11.8345 2.24402 7.17136
11.7343 2.18085 7.20604
11.7274 2.17051 6.9094
11.3712 2.1412 7.04437
11.6737 2.2216 7.43446
11.6191 2.20366 7.52293
11.7847 2.29744 7.89271
11.6598 2.26805 6.91737
11.773 2.21059 7.11576
11.526 2.20051 7.50368
11.4947 2.11596 7.28748
11.6208 2.24909 7.60452
11.5546 2.23449 7.13177
11.4593 2.1384 7.6551
11.567 2.15372 7.30108
11.4691 2.16229 7.27556
11.5336 2.15554 7.13719
11.3746 2.29804 7.53165
11.7531 2.11581 7.14199
11.7189 2.20147 7.3477
11.4483 2.17159 7.93107
11.4179 2.20325 6.98103
11.3248 2.16934 7.22263
11.4824 2.20488 7.5798
11.5593 2.27291 7.54957
11.4299 2.17888 7.56141
11.2447 2.13957 7.42422
11.5056 2.26283 7.38276
11.3908 2.10409 7.36862
11.6913 2.2355 7.37509
11.4207 2.03593 7.29127
11.4719 2.261 7.19615
11.2244 2.29277 7.87367
11.3994 2.15912 7.56504
11.3847 2.10726 7.31313
11.3861 2.18291 7.41271
11.5628 2.17461 7.29799
11.4889 2.139 7.41583
11.4697 2.30414 7.80703
11.2221 2.24549 7.07697
11.4196 2.0423 7.37747
11.3763 2.24694 7.69859
11.1585 2.22468 7.56656
11.371 2.15563 7.21123
11.257 2.05012 7.04639
11.1556 2.14135 7.50325
11.2277 2.14959 7.70308
11.6369 2.22525 7.60329
11.0227 2.09076 7.05553
11.06 2.29107 7.695
11.1866 2.10387 7.40475
11.1141 2.19418 7.20808
11.2726 2.0892 7.67232
11.4507 2.07993 7.43818
11.211 2.26398 7.73147
11.2202 2.05886 7.41643
10.9407 2.18941 7.6634
11.1883 2.31444 7.61599
10.968 2.21486 7.75112
11.5041 2.18807 7.8136
11.07 2.13435 7.27041
11.3305 2.18149 7.60123
11.137 2.0838 7.53042
10.9465 2.11701 7.38304
11.135 1.9855 7.45461
11.191 2.24011 7.68677
11.3495 2.17598 7.72907
10.8265 2.15527 7.58684
11.2609 2.13871 7.44609
11.2595 2.0707 7.26433
10.9072 2.06702 7.53229
11.0817 2.16575 7.52996
11.0087 2.04555 7.30877
10.971 2.13388 7.62423
11.0683 2.1652 7.4599
10.7981 2.12459 7.88331
10.9567 2.18585 7.60408
11.0716 2.08448 7.24272
11.1156 2.14423 7.39263
10.8324 2.14376 7.57355
11.0197 2.165 7.33569
10.7551 2.01073 7.66054
11.1749 2.23025 7.83875
11.0743 2.2729 7.67546
11.0385 2.26687 7.58159
10.7953 2.09947 7.81807
11.2368 2.29857 7.87817
10.9242 2.18036 7.78076
11.0179 2.30215 7.99796
10.9247 2.26268 8.2606
11.2975 2.19106 7.85022
10.9102 2.16803 8.05491
10.6698 2.08715 7.69251
10.4922 2.28476 8.12611
11.0638 2.16705 8.37504
11.2636 2.32361 8.00368
11.132 2.22156 8.27475
10.8245 2.2458 8.09036
11.1499 2.25737 8.565
11.0838 2.46816 8.95116
11.3115 2.63759 9.69448
10.7876 2.99538 10.9225
10.8814 2.58112 8.57298
11.2508 2.55173 10.3351
10.6588 3.07503 10.6029
11.4445 2.53113 8.77169
10.9925 2.35092 8.81528
11.0617 2.42996 7.91148
10.6979 2.25705 8.27008
10.7835 2.32848 8.31838
10.6487 2.41587 8.75666
10.6742 2.33787 8.10814
10.7665 2.17881 8.28183
11.0423 2.16531 7.77076
10.754 2.12469 7.79555
10.8938 2.17064 7.87876
10.6604 2.18161 7.90325
10.6214 2.16662 7.81616
10.5462 2.12898 7.96505
10.7414 2.10749 7.2058
10.6044 2.15807 8.25339
10.8965 2.06768 7.55398
10.5587 2.09969 8.07945
10.7664 2.22732 7.84446
10.8291 2.1643 7.95503
10.7431 2.10251 7.58608
10.6048 2.22399 7.96989
10.5847 2.12591 7.67904
10.4822 2.0814 7.59164
10.7025 2.07343 7.49316
10.6988 2.18838 8.2618
10.842 2.05062 7.46534
10.4311 2.04361 7.85562
10.4365 2.20706 7.64926
10.6601 2.11019 7.70713
10.5888 2.0009 7.52256
10.6441 2.11584 7.75841
10.5937 2.13634 7.80558
10.475 2.04647 7.84782
10.7144 2.19081 7.79348
10.4069 2.12979 8.08019
10.5704 2.05681 7.41122
10.3696 2.06448 7.28864
10.6312 2.00915 7.62955
10.426 2.1479 8.31633
10.4792 2.10833 7.80172
10.6074 1.96494 7.50681
10.6325 2.08715 7.55929
10.4248 2.03819 8.09748
10.6274 2.13112 7.49376
10.4653 2.10615 7.98604
10.3081 1.99751 7.44144
10.5133 1.97839 7.27598
10.3479 1.95776 7.60232
10.4772 2.02293 7.47019
10.3371 2.07321 7.76014
10.5325 2.01826 7.27908
10.3247 2.06584 7.67051
10.4334 2.00301 7.73042
10.2211 1.92689 7.41477
10.4093 2.19087 7.8577
10.4306 2.07459 7.62499
10.4242 2.126 7.70638
10.2862 1.99778 7.62155
10.4331 2.08224 7.52638
10.4137 1.93171 7.53904
10.6166 1.87583 7.16343
10.4048 2.10385 7.58131
10.3394 1.91949 7.31709
10.0333 1.92438 7.465
10.2141 1.94768 7.06493
10.2942 2.02565 7.56387
10.4688 2.01552 7.94066
10.341 2.15629 7.54659
10.6197 1.98328 7.78934
10.1876 2.06032 7.39607
10.1596 1.98257 7.67092
10.2683 2.08752 7.82525
10.3705 1.93926 7.65437
10.5151 2.01481 7.83918
10.3985 2.11113 8.24082
10.5551 2.11043 7.99832
10.2712 2.14396 7.2945
10.2743 2.05126 7.96078
10.3848 2.04475 7.29416
10.4533 2.01944 7.2856
10.219 1.89849 7.6651
10.2105 1.96286 7.46335
10.1354 2.02347 7.40029
10.2006 1.97349 7.57845
10.1365 2.0537 7.43624
10.5587 1.90244 7.59775
10.3785 2.08939 7.99331
10.2471 1.95977 7.85287
10.1657 1.9789 7.13675
10.3257 1.89192 7.21083
10.1568 1.97699 7.67376
10.354 2.00003 7.68394
10.1802 2.08987 7.89984
10.237 2.00606 7.88022
10.029 2.01248 7.38667
10.2387 2.11259 7.617
10.1581 2.01179 7.64045
10.0982 1.95017 7.84371
10.0831 2.0274 7.73384
10.1009 2.1142 8.08402
10.0334 2.06849 7.55321
10.3216 1.8962 7.58515
10.2005 1.96384 7.69876
10.3095 1.97307 7.40949
9.96602 1.90982 7.81014
9.91814 2.07939 7.84885
9.86597 2.08237 7.7943
10.0828 2.14338 8.27495
10.2759 2.0648 7.91557
10.0908 1.94229 7.82833
10.2929 2.00975 7.51307
10.0548 1.95857 7.59938
10.0113 2.12813 7.85154
10.0762 2.09203 7.97847
9.96206 2.06096 7.95688
10.1203 2.08453 8.10236
9.83121 2.02153 8.1511
10.0477 2.01067 7.69448
10.153 1.91602 7.2256
10.252 1.96314 8.12421
10.1807 2.16745 7.83965
10.111 2.06029 7.88159
10.0553 2.02515 7.79866
9.95316 1.90936 7.33972
9.92644 2.01605 8.15071
10.0486 1.93323 7.27048
9.91462 1.92352 7.31524
10.0229 1.97362 7.93915
9.87196 1.82042 6.96645
9.83665 1.94057 7.94976
9.99999 1.95397 7.56056
9.95672 1.99027 7.22369
9.92758 1.98411 7.68479
9.91049 1.93615 7.69867
9.94721 2.07629 7.60494
9.99334 1.89007 7.94962
10.022 2.03807 7.9522
10.078 2.08507 7.49779
9.9979 1.89932 7.58462
9.99391 2.0465 7.97075
9.97766 1.95448 7.73266
9.66059 1.98042 7.69387
9.80882 1.98658 7.47978
9.88242 2.01535 7.89509
10.1613 1.98278 7.75727
9.90794 1.95826 7.89776
10.1828 1.99119 7.92613
9.72308 2.02392 7.75128
9.8567 1.98821 7.79138
9.8157 1.99668 7.37686
10.0036 2.0039 7.80865
9.78376 1.969 7.16236
9.83142 1.80157 7.01424
9.83578 1.97335 7.61659
9.87505 1.94111 7.84513
9.93784 1.93002 7.47739
10.0752 1.91478 7.58297
9.83896 1.93563 7.90427
9.9284 1.93464 7.69136
9.78137 1.92331 7.39843
9.84459 2.04141 7.89437
10.0027 1.98729 7.5725
9.87136 1.92292 7.60985
9.80682 1.89764 7.41776
9.81447 2.043 8.08611
9.95703 1.98341 7.76328
9.8751 1.94355 7.92305
9.85659 2.10451 7.83827
9.81691 1.92873 8.04241
9.81389 2.07267 7.75604
9.65678 1.91448 7.19053
9.80843 1.92631 7.94084
9.72409 1.9498 7.72223
9.97029 1.89001 7.34664
9.75506 1.85005 7.54514
9.91213 1.95746 7.33686
9.86144 1.99549 7.55612
9.78506 1.89798 7.76727
9.71445 1.86402 7.45622
9.85753 1.87788 7.128
9.89094 1.95506 7.55764
9.8322 1.88745 8.13145
9.85904 1.99433 7.83388
9.80659 1.98776 7.63159
9.6788 2.00922 7.83464
9.8793 1.88647 7.45157
9.79614 1.95809 7.61103
9.94968 1.89844 7.4805
9.73319 1.92327 8.08381
9.73462 2.14023 8.16016
9.89588 1.96166 7.45531
9.75292 1.86515 7.99208
9.71665 2.01254 7.72289
9.6881 2.07049 8.08589
9.56304 2.00684 7.80942
9.75126 1.94465 8.26148
9.95674 1.98029 7.71503
9.69448 1.90981 7.46512
9.85753 1.86161 7.60875
9.6765 1.84069 7.23571
9.6758 1.97791 8.05434
9.46314 2.06134 8.01457
9.75418 2.08598 7.72125
9.6801 1.98699 7.73053
9.81664 1.97045 8.15329
9.58116 2.01211 8.22563
9.93224 2.02797 7.52316
9.61718 1.95094 7.76692
9.76427 1.91337 7.49707
9.43805 1.90262 7.7388
9.59345 1.88822 7.70688
9.49222 1.96046 7.28704
9.53619 1.92286 7.97327
9.52847 1.89259 7.47529
9.50012 1.98835 7.75319
9.71477 2.05934 7.97802
9.66984 1.9613 7.71084
9.61243 1.91033 8.28696
9.50993 2.14718 8.24575
9.60441 2.01859 7.67805
9.72738 1.92166 8.04887
9.72894 2.0471 7.7021
9.7701 1.95219 8.07588
9.78879 1.98715 7.69807
9.5479 1.99792 7.91488
9.58987 1.88073 7.32869
9.52731 1.92942 7.93232
9.64041 1.90681 7.61322
9.59785 2.02983 8.14288
9.51096 1.93404 7.58024
9.55807 1.97179 7.80882
9.55322 1.9122 7.68441
9.52075 1.86164 7.5738
9.65143 1.98015 8.00684
9.61102 1.95553 7.50327
9.37746 1.91585 7.27319
9.39012 1.90024 7.70629
9.58768 1.87213 7.77362
9.47975 2.10704 8.04575
9.59949 1.99762 7.96368
9.56022 1.95884 7.94485
9.65758 1.92636 7.69984
9.46667 1.95494 7.80396
9.53919 1.85073 7.47638
9.52525 2.06535 8.52172
9.83033 2.03875 7.96603
9.66794 1.96747 7.87297
9.70685 2.00259 8.10855
9.546 2.02753 7.87526
9.59717 2.01622 8.30286
9.53492 1.96922 7.52708
9.72493 1.99532 7.92441
9.54764 1.83666 7.53527
9.56988 2.00203 8.0014
9.25226 2.01458 7.34845
9.47887 1.97152 8.17341
9.49652 2.02131 7.80051
9.53002 2.01077 8.48058
9.53635 2.19388 7.96742
9.54987 1.95052 8.20807
9.40693 2.00054 7.78758
9.77715 1.94132 8.12669
9.58608 1.89811 7.70306
9.55986 2.03963 8.39821
9.55075 2.05732 8.08086
9.64892 1.95758 7.66028
9.52857 2.06405 7.91938
9.60379 2.02714 8.21939
9.58277 2.00457 8.03906
9.52254 1.95103 7.83529
9.54017 2.16778 8.36003
9.63209 2.07483 8.47968
9.55838 2.04464 8.16214
9.60838 2.22826 8.69218
9.56658 2.01507 8.3124
9.59354 2.15608 8.90246
9.66923 2.25096 9.02336
9.52897 2.15072 8.87814
9.61525 2.43064 9.2331
9.61613 2.21479 8.52423
9.48486 2.19724 9.64069
9.69282 2.45331 9.97998
10.093 2.47664 11.9802
9.58379 3.01585 10.85
9.40247 2.39124 8.19547
9.91417 0 0