# pn-170911/CsIIA-32-USNO-1280-1959.psd
# Power spectrum* (dif=0,1,2) (really just |FT|^2)
# NOTE: only the first half! (symmetric)
# weeks: 1280-1959
# 4 clock-days, 1 excluded
# PSD: 1441
876090 56.1228 0.0256312
1.99999e+06 49.9845 0.0287703
7.17872e+07 1404.42 0.0288556
2.83091e+06 122.802 0.0395715
1.70265e+07 1641.5 0.128875
1.12689e+06 83.6382 0.0264143
1.15274e+06 113.07 0.0417071
1.09295e+06 129.223 0.018761
582910 120.467 0.0671751
228713 53.5072 0.0296999
151196 112.798 0.0495586
225117 152.427 0.104541
240720 176.536 0.181775
180134 78.1036 0.048212
179952 90.0939 0.08105
356536 322.744 0.393209
127808 149.424 0.270034
70792.4 24.2313 0.0717515
58827.5 92.3962 0.151005
151682 123.398 0.305263
82385.2 148.93 0.338576
94001.4 155.342 0.431679
65044.6 113.782 0.351469
45750.7 71.3652 0.2442
135746 211.319 0.647152
36575.8 116.477 0.287425
97329.9 233.163 0.73626
36162 121.2 0.315544
54669.4 124.045 0.410315
13989.6 27.8887 0.160059
24404 60.0921 0.200908
30561.2 156.954 0.682312
16980.2 121.734 0.609058
35914.4 173.971 0.908136
13361.8 93.2023 0.515283
38144 165.301 1.00867
33057.7 130.769 0.723311
29139 115.677 0.799268
24692.2 155.206 1.11302
11111 71.9072 0.636263
26194.6 161.347 1.11066
7814.88 70.2254 0.458239
26898.5 158.932 1.50164
31571.1 281.436 2.40389
8804.17 75.9392 0.587477
8247.16 98.3047 0.965427
21554.1 118.277 1.38586
15568.4 194.324 2.06967
16047.9 116.437 1.51102
9684.86 46.0762 0.55677
16071.2 159.592 1.76769
5970.56 62.2277 0.947631
10524.6 55.1798 0.725837
14054.5 191.551 2.50235
17016.4 123.129 1.86215
13630.8 129.829 1.85358
9676.91 103.02 1.48674
9430.95 86.8633 1.25006
9209.22 52.5515 0.909815
4500.88 117.305 1.84958
12984 180.088 2.98402
4810.57 27.5731 0.547876
3354.96 49.6671 0.951373
5258.18 68.1166 1.42384
7878.68 86.0646 1.84627
1389.43 28.9914 0.530299
6138.82 85.0629 1.70993
988.76 40.6889 0.835684
17339.5 317.646 6.60452
4474.12 95.5534 2.11005
2659.94 30.5238 0.702485
4966.43 49.2526 1.1636
4081.44 89.0717 2.40323
7716.21 148.881 3.76368
7079.31 120.396 3.00236
8565.31 138.641 4.0924
3256.13 49.4228 1.31165
2807.86 47.0928 1.40756
3284.01 82.4125 2.41433
3073.88 33.9693 0.969713
9215.46 157.85 4.90798
6128.05 141.777 4.34407
3639.77 37.4706 1.3137
2457.83 50.4939 1.90804
2517.47 51.2744 1.55909
1702.73 98.5174 3.42539
3643.84 74.5516 2.75772
4924.08 103.742 4.11969
3428.65 63.7666 2.60047
4019.34 117.608 4.25873
1823.48 30.6335 1.05211
2718.26 85.5486 3.78552
5935.04 162.591 6.43444
2547.33 39.0963 2.02417
1258.54 40.9562 1.77018
4600.06 112.538 4.60359
1400.54 76.8542 3.64926
2456.54 109.03 4.70881
2077.42 26.529 1.15346
2133.41 71.1847 3.28566
4940.23 107.191 5.13011
1320.68 73.7148 3.75226
1795.48 58.076 2.39622
2223.2 57.6393 2.68255
1695.52 27.8331 1.33179
1754.87 105.106 5.3399
2451.33 91.4382 4.60292
1068.8 61.9334 3.28221
2813.54 67.6651 3.61819
2221.19 55.1444 3.08292
1176.39 27.5812 1.82464
1952.58 57.4691 3.13167
1582.67 91.6552 5.60324
3389.64 116.464 6.9447
2363.96 107.754 6.67255
593.795 48.8027 3.49068
1117.57 51.1499 3.55604
786.515 31.6918 2.13869
2167.5 43.2657 2.38689
2306.95 86.8992 5.66894
1366.59 60.9012 4.16738
1398.64 54.1843 3.94179
3458.62 139.359 9.1519
2811.18 73.2037 5.07993
335.071 50.542 3.79113
1593.62 29.6056 1.90928
1455.91 32.7244 2.29798
1649.87 47.1996 3.51003
897.326 42.439 3.40434
979.71 14.101 1.25338
1213.8 55.9517 4.48748
207.488 13.8501 1.17224
513.129 27.8087 2.26662
1045.03 63.8647 5.13301
1306.47 52.1911 4.71676
1121.72 52.1121 5.17766
1820.12 82.2541 7.52058
1180.54 54.976 4.35565
1972.37 129.805 11.352
710.635 44.7607 3.83909
1951.59 118.296 10.1853
2356.54 119.036 10.3648
795.71 37.4147 3.68268
476.241 49.552 5.21742
822.238 22.3931 2.11309
1134.36 98.2516 9.30873
499.247 31.7121 2.78455
319.595 62.1254 6.36156
864.558 21.3043 2.02517
608.033 27.5799 3.56876
732.201 58.0913 5.90883
528.968 30.0295 3.09192
1412.4 52.4357 5.3832
316.91 17.5078 1.35704
788.801 73.1027 8.11349
794.062 19.3953 2.54661
872.324 52.9193 5.83767
269.645 52.8092 6.51837
1167.32 95.9547 11.8727
1054.92 58.2993 6.2246
525.957 28.2729 3.78358
164.119 30.0235 4.39491
1237.31 73.6722 8.57161
1002.66 41.7024 5.06938
676.58 34.289 4.26279
472.189 30.7071 4.02497
826.279 55.6767 7.43247
434.816 16.244 2.04326
406.332 36.1294 4.84473
604.383 41.6834 5.20797
697.272 19.3277 2.6959
1079.42 55.9066 7.78131
545.729 14.5949 1.85548
477.478 52.0489 6.88212
715.109 51.2243 7.98958
1002.47 70.9635 10.2269
548.601 22.1967 3.4523
89.3125 34.0336 4.33581
500.077 58.939 8.89457
564.363 17.8738 2.52088
538.598 42.9645 7.12842
593.164 58.1163 8.02114
480.977 20.8174 3.22915
509.344 36.161 5.29845
584.628 43.7147 7.50564
670.731 30.5216 4.33523
507.114 18.674 2.99911
378.152 24.8307 3.86297
316.66 54.5038 9.35061
540.198 26.0093 3.60941
374.121 7.38083 1.53238
211.601 26.1647 4.42734
74.3874 12.9919 2.0266
360.352 27.3067 4.79174
374.861 9.15325 1.68858
107.005 30.1779 4.8198
237.707 25.3503 5.40371
441.533 18.8404 2.78598
465.315 49.7168 9.01185
407.603 21.5638 4.60668
383.978 41.2407 8.27993
189.294 8.18123 1.68026
459.994 21.4288 3.2294
395.416 15.4377 3.0453
391.867 17.314 3.1386
241.297 15.5024 3.29568
332.795 14.042 3.34798
349.97 33.2761 5.95573
291.019 13.3544 2.84965
288.548 14.7812 2.60964
325.707 13.4865 3.52551
195.158 19.5853 2.97454
529.448 50.9035 9.92825
401.748 43.1008 10.1066
335.261 50.3859 9.97793
181.508 22.7133 5.20379
180.022 21.2865 5.16803
188.048 1.00451 0.296356
386.707 15.9812 3.16096
265.345 34.198 8.21574
483.258 65.6222 14.0315
307.284 35.0447 8.06121
362.229 32.7217 7.49516
226.541 11.3039 2.05397
202.427 11.218 2.74768
225.849 11.5613 2.46971
209.787 30.3622 6.7249
134.647 8.21293 2.19041
196.417 43.8082 10.6868
144.985 19.1099 6.44116
200.342 24.602 5.24742
327.835 25.8697 6.89052
187.627 27.1442 8.16861
340.972 16.0732 3.43225
411.745 24.2927 5.37506
344.782 19.4083 4.92734
215.376 26.2415 6.74199
254.671 32.4806 7.0996
90.1361 11.993 3.37661
206.327 26.0006 7.08606
226.864 14.0556 3.78261
135.836 13.419 5.16213
312.967 20.6335 4.28171
311.235 23.917 6.74867
304.034 23.6194 6.40318
85.5133 17.8569 5.35559
127.773 30.5815 8.98183
275.487 10.5143 2.10734
276.955 40.4438 12.2654
190.908 10.9661 2.72051
384.783 26.2022 6.84948
270.296 27.5698 8.14956
197.621 12.8934 3.70679
188.863 19.3272 5.76644
473.757 45.6406 12.8643
101.036 21.3617 6.62084
251.732 32.9896 9.27058
257.951 22.0065 7.23277
160.201 6.17198 2.19199
142.573 15.3648 4.67224
226.987 9.35904 3.17147
162.454 7.78043 2.37902
168.796 10.4396 4.24347
140.796 16.0097 5.01479
137.88 7.13547 2.76627
155.61 18.4311 5.50645
202.642 24.5461 7.93406
130.493 8.67064 2.83107
154.105 6.8205 2.58421
149.666 10.0237 3.9751
229.811 34.6869 11.057
131.292 4.29201 1.32039
171.687 7.12782 2.28387
147.965 11.4601 3.84062
168.446 14.6018 5.14938
173.754 18.9451 7.43723
173.307 18.5131 6.16163
262.736 20.7312 6.51545
314.719 31.122 12.3252
249.273 23.9367 10.0218
91.604 16.6959 3.64712
153.107 19.3121 5.83923
156.847 18.4242 7.32209
106.871 8.21073 4.38323
155.657 9.09664 3.4467
271.47 19.9191 7.44723
146.55 15.9771 8.31541
132.495 17.0895 4.65824
188.508 16.839 6.32328
156.752 13.1024 5.00254
222.065 18.7674 6.728
70.9886 2.90573 0.749942
162.8 12.5039 5.50116
134.434 9.2216 4.37221
129.749 14.2571 5.28169
218.504 40.2526 15.9055
111.969 11.8206 3.91653
99.422 11.6676 4.01906
184.129 12.5726 5.48614
121.592 16.9055 8.01818
203.262 23.11 10.6891
46.7667 12.5524 3.60057
132.866 19.9971 8.17055
133.315 5.56524 3.19355
69.3467 10.1638 5.5924
92.339 26.7701 8.52661
43.0608 16.9771 7.92183
145.285 5.75794 2.97193
53.7034 9.51365 4.43501
108.953 12.9496 5.02908
110.283 11.3745 5.02783
103.745 9.70075 4.80335
134.062 32.9157 14.761
155.554 10.5044 4.25922
106.6 12.5375 4.66659
97.2693 14.5048 6.10444
89.4041 16.3535 9.29876
107.215 11.1991 5.32841
74.2966 3.13744 1.60602
194.465 22.2695 9.30363
81.2712 5.90503 2.34286
79.826 5.67473 3.08841
110.711 23.7483 11.0069
101.199 1.96302 0.662601
125.821 7.57373 3.61315
78.3767 6.99118 3.70097
54.1609 7.85882 3.79378
103.046 7.93641 5.074
100.386 8.21858 3.30387
97.8056 3.69753 2.57442
123.109 17.1549 6.49151
144.001 11.017 6.32842
62.8489 18.3788 7.50396
92.0817 16.2801 8.65843
83.8183 5.04549 2.5152
90.3199 10.0069 5.43796
141.602 21.9018 11.82
132.06 12.0846 5.61055
91.8859 17.678 9.96549
187.268 26.1708 13.2991
67.5591 6.09428 4.66578
63.0603 9.85383 5.01773
61.7887 8.98647 4.48575
96.316 7.81838 3.55088
81.7187 10.7456 6.13868
105.497 26.8264 13.749
64.7098 12.9806 8.571
104.152 12.1105 8.99517
74.4729 13.7819 6.09752
136.264 10.8461 4.92464
75.5452 6.51299 3.57914
156.987 20.451 12.5406
56.679 6.63327 3.68721
57.2568 8.09692 5.52616
100.734 6.89846 2.51595
106.218 25.8078 12.3121
104.358 9.51502 6.67438
79.9196 4.14424 2.44675
95.8896 9.55701 7.16095
57.626 14.8523 6.84559
63.0613 10.2443 9.15985
152.647 13.4004 4.8063
149.123 18.8484 11.301
104.875 13.5763 7.79515
74.2936 12.216 5.47676
81.7693 12.5716 9.38749
144.769 13.4506 8.00342
78.6933 9.2131 6.06924
47.4742 9.32813 5.78482
81.0989 8.68604 5.03128
71.6262 16.097 10.4354
80.7046 11.6688 6.27505
90.7126 6.86712 5.36632
87.9705 9.84673 5.22985
109.089 9.66226 5.96184
83.7794 6.27221 3.26592
65.3757 4.19522 3.33653
68.4238 11.4447 8.27903
98.0928 9.67113 6.7176
60.4289 4.93296 2.63722
62.2993 14.8307 10.5668
82.8364 6.61349 3.23838
67.34 7.65869 5.23117
79.4881 8.56859 6.29494
43.3543 6.65431 6.39898
52.7801 9.16863 4.63866
56.3439 5.18572 3.13121
61.6526 8.96811 5.09485
53.627 4.91871 2.71994
50.3178 9.90522 6.77445
50.1756 30.7944 19.5382
83.32 5.54371 4.64652
54.9258 6.41471 4.00241
44.3271 3.33526 2.77932
75.3617 17.6149 11.3487
74.4499 9.9542 6.47574
77.5455 8.27667 6.08906
52.4091 8.23618 6.54381
58.5879 5.04733 3.23823
51.6646 9.43578 7.76967
57.7532 8.01914 6.27387
75.7339 10.5111 10.0809
110.13 6.91128 3.16111
73.4169 4.90245 2.61748
111.873 10.0466 6.24415
77.6813 7.91931 6.95533
59.6307 6.29199 5.7055
59.9302 12.9347 5.91709
69.0579 9.38896 6.95326
62.8645 1.93105 1.38173
83.5595 13.4463 10.5461
40.678 4.23848 2.74023
48.1648 15.9034 10.2993
96.7531 12.9065 9.76783
56.9548 4.29137 4.81599
79.5213 7.01836 7.38789
58.13 7.72961 5.03886
42.1873 6.39586 4.97715
57.8843 11.2407 6.55396
48.0594 11.7565 10.3181
61.8182 7.32297 6.43714
88.6404 12.4567 10.0007
50.7016 11.5024 8.88375
39.7998 8.58038 8.43709
85.8477 11.8656 8.03601
41.3706 10.2598 9.25659
102.993 14.4495 9.89423
54.4345 5.37653 4.37205
50.5548 7.40803 6.18115
47.4939 11.0482 8.61969
52.5383 10.3156 8.05655
60.9109 8.85824 6.40389
43.0373 3.49409 4.25664
50.9609 5.6314 5.57614
44.4849 2.38632 1.79494
48.6743 4.73661 2.65678
31.404 9.86249 9.70083
56.0297 5.15158 4.05
32.9796 11.5983 10.4526
84.687 3.84981 2.24037
48.891 9.12267 9.55065
77.16 9.33274 7.30379
42.4363 2.09772 3.62108
69.8037 9.61243 8.29446
39.6963 9.67016 10.1742
87.0868 11.6669 6.26579
66.8669 7.87131 7.15297
59.7636 4.03281 3.8032
46.9872 1.44371 1.21807
33.4959 4.45893 3.18948
60.827 5.63581 4.53608
68.0703 8.89044 9.21241
47.1647 9.60412 9.4133
37.6794 3.52024 4.64848
69.5588 11.6326 8.29208
60.277 3.9147 4.92016
69.7062 4.78001 2.39769
75.7752 6.82687 5.45908
60.4442 11.4284 11.7478
48.9733 3.96767 5.17307
44.7034 2.76189 2.09568
42.1231 1.78756 1.45348
31.9696 6.59123 6.39783
51.402 3.14605 2.94712
37.6627 1.65156 2.66891
28.7761 3.1668 1.53183
29.7476 7.27712 7.57036
49.1022 2.46343 1.68187
43.3352 3.71264 5.01476
30.9777 7.12671 7.30525
64.6702 6.37772 5.26148
49.8574 3.05435 2.97561
59.8836 2.63919 2.1497
50.6399 3.26352 3.20341
69.5537 10.0375 11.5794
33.6795 7.4284 8.19794
46.8007 3.30034 2.20922
51.4177 3.96304 5.18231
48.333 14.6057 13.0504
34.7956 2.80241 2.20959
30.3447 3.19248 5.17939
49.6368 4.27792 1.71525
53.6162 11.8178 9.35084
41.0291 7.61276 6.88734
19.7402 3.42364 3.86363
54.7916 7.49105 5.98053
28.6219 8.5294 9.82581
48.4686 6.71681 7.40904
41.9079 6.12393 6.9566
41.2746 1.77941 1.81395
31.1833 2.88514 3.75341
49.8396 6.2019 7.37447
36.7567 7.62464 9.38973
79.1171 13.3391 10.7964
31.7637 4.36359 7.44215
44.5882 5.27593 2.79102
41.7908 8.09543 9.3852
41.4205 11.4394 12.6322
48.9699 3.64159 4.37386
45.0658 7.3147 6.27018
57.7024 8.63836 10.5402
32.5128 3.19139 4.24123
36.731 7.44819 8.27904
33.7821 5.2408 9.17957
31.5868 3.88909 1.68803
44.4065 7.35784 7.52348
24.5455 5.73795 4.65077
35.4076 3.11231 4.06271
30.1686 3.5628 4.55991
38.7271 1.79171 3.0892
35.4334 2.55526 4.45666
43.074 3.11921 3.74218
50.871 4.09871 3.89283
34.306 3.11618 3.74352
45.1597 3.76413 4.70606
38.1578 5.42888 3.88507
47.2277 3.23601 4.95194
40.4868 3.10753 1.68158
55.5668 7.6836 9.81658
26.9238 3.18708 5.14
57.6148 8.72774 8.54536
37.0935 2.86672 3.44037
34.7628 5.32108 7.07949
37.4631 2.55765 2.07373
39.958 7.72498 9.03685
29.4447 2.88259 3.07091
34.1052 4.53989 5.20578
49.0394 4.18686 4.95683
25.3307 2.40929 2.96697
29.3453 2.78444 2.90998
33.5571 3.93365 5.94537
36.5346 6.3585 8.3897
38.7576 4.77304 3.75051
33.5865 6.82932 6.54385
31.0386 4.68705 5.8989
33.5055 2.07229 1.80584
30.5061 8.03034 9.10802
27.1458 5.13335 7.59653
39.4881 1.20108 3.4566
32.2865 5.31134 5.66737
32.9384 2.2835 4.0577
47.5617 4.24849 4.95941
32.1111 5.55869 5.16439
22.7325 2.33886 4.78014
34.9092 7.32523 10.1847
41.5895 4.15732 4.94661
38.7264 1.47349 2.10907
42.1888 4.53199 4.68526
36.2207 5.0422 4.69785
35.4872 4.82259 7.35451
50.2074 9.61585 9.63097
52.1084 12.2657 15.6964
30.1954 4.2522 4.43525
41.4741 4.50306 4.13544
22.2665 4.60569 4.92635
35.7909 3.82867 6.89976
35.9097 4.43669 6.27229
32.2196 1.34842 3.69832
39.5516 4.29544 4.78829
39.2184 3.33376 3.9598
30.2171 2.1599 3.55592
17.9475 3.30333 2.97725
39.2366 5.86431 6.57897
32.4107 3.17395 6.97296
31.3055 2.91025 2.54252
24.0737 3.40454 4.61274
25.0415 4.39702 5.44536
32.8944 1.21044 2.01664
39.9131 3.01828 5.31303
30.167 7.65549 10.5736
27.924 3.13202 3.02674
27.4733 1.4052 1.41825
17.4823 7.84093 10.526
42.3668 5.62931 10.6784
34.3722 8.52896 13.6784
37.6748 5.84936 4.79697
29.9095 4.13693 6.4093
36.5177 4.41663 6.20446
46.9495 5.40247 6.17305
37.1272 2.38738 2.55248
24.4626 3.12921 4.21754
40.8849 2.54847 4.49802
37.9118 3.43915 4.82128
28.4856 2.61433 2.81131
35.7347 4.05249 5.81469
32.814 5.69788 8.12707
32.9771 5.87028 8.46843
18.3766 2.13775 2.66543
32.1088 1.25807 1.8463
42.654 7.24899 12.1246
34.2896 3.09515 4.09086
22.0397 2.52855 4.79553
24.4062 5.09064 6.11674
32.0247 1.95658 2.18033
25.9623 0.559382 1.30384
26.2278 1.88306 1.79454
22.4065 2.16313 3.64976
37.1158 2.73168 3.27696
25.9795 4.54886 9.28578
32.3681 1.70956 2.28708
25.6639 3.16319 3.84524
21.7554 4.13064 5.62461
27.6883 1.33003 1.78065
30.5349 1.92951 4.37081
26.8891 2.42931 2.93648
18.7595 2.66684 4.13567
24.9693 1.78655 2.27324
28.761 2.90025 2.43084
31.1549 1.67595 2.21173
22.2085 1.9661 2.66321
36.3567 6.87202 9.29559
23.7853 4.26273 7.3934
31.564 2.67344 3.7706
26.5521 3.8164 8.175
32.584 2.1862 3.83307
26.1887 5.16919 10.8645
23.6525 9.58458 9.95374
32.7521 2.13301 3.80326
23.3293 3.83843 4.70757
38.3104 4.21187 6.92918
18.3947 1.87114 3.70731
36.2186 2.69426 3.59096
20.5605 2.82409 5.01455
26.4597 3.07485 2.95512
19.7857 3.08236 4.99668
17.5912 2.27932 2.24728
20.5339 4.14278 5.36371
20.0419 6.47386 13.5382
36.8047 6.03632 10.069
23.3189 2.75626 2.82811
30.1959 2.46924 6.54633
18.7745 4.01027 8.13426
47.8002 5.68988 4.4804
25.6587 4.11525 8.98401
17.3456 7.50068 10.7403
24.8072 5.49728 11.5192
35.3877 4.13607 7.0312
27.8432 2.65 5.79999
32.0737 7.0992 9.03144
30.6356 0.851019 1.43973
26.0397 1.48442 1.33897
30.1702 1.22859 2.02254
25.0024 2.64227 3.8206
27.3822 1.67307 1.95812
22.6985 4.90936 12.2835
31.2764 3.86781 4.54892
24.5206 2.6142 6.33959
42.7634 12.1021 19.0947
34.3333 4.06365 5.08053
26.3478 1.41374 1.91176
31.7109 3.98866 4.62454
26.6277 6.64141 11.4373
28.5176 1.9246 6.07111
19.7967 4.34748 7.20696
34.9 3.27412 3.57499
22.6102 1.54334 4.87554
21.6883 2.67798 4.61846
19.4285 3.2025 5.65511
21.5364 2.61587 3.86139
25.5984 1.11838 2.30493
20.0144 1.47819 2.36329
30.0412 3.53338 6.65637
24.0938 2.68954 4.32423
21.149 3.8662 7.53352
19.6991 2.21408 2.11533
29.8472 1.97479 4.37153
19.1375 3.20294 3.22865
28.9045 2.12473 6.02082
15.4067 3.39489 5.55138
24.8997 2.09519 1.89455
20.0498 1.714 2.83863
23.6149 1.59552 2.94052
26.5825 3.77821 8.2475
16.3036 4.31009 8.55134
27.4994 3.53825 4.95957
22.5475 2.04361 3.77766
36.0038 5.4957 8.50258
20.7387 3.20889 6.34947
30.2943 3.19875 5.10551
17.2675 1.85228 4.29261
21.7046 1.00111 3.02321
15.6182 0.669167 2.06832
15.6358 3.08491 5.67836
25.6328 1.86952 1.95281
22.3297 3.77147 6.75385
25.2312 1.90756 2.93867
19.0126 2.81068 5.66826
28.1343 5.86215 12.3116
21.128 1.66245 2.85558
28.6508 4.68093 8.69648
17.4454 3.34336 8.08176
18.4337 2.41987 4.32083
20.9696 2.34949 3.63836
16.4446 2.60262 3.28058
23.9745 2.69485 6.84836
17.6602 1.61271 4.2779
15.1849 3.5194 4.00943
19.5089 0.635959 1.90855
24.6783 4.09125 7.86442
18.9804 2.21287 4.79428
21.1868 3.5695 6.77352
20.4401 1.51628 1.34519
19.8461 1.86184 4.34795
21.3246 1.58304 4.02967
15.7792 2.70297 3.72237
22.7228 2.00342 5.59387
24.6262 4.30463 8.72421
20.0815 2.47477 6.67976
20.5869 4.61914 6.31892
33.0231 5.50464 10.0527
22.3029 3.76208 6.76147
23.3112 2.20348 7.1148
12.2701 2.63512 3.98667
24.5308 2.00255 5.37648
18.1164 6.1297 12.1512
21.0884 2.05743 4.49384
18.5089 2.65852 5.19692
24.457 3.27742 6.58893
16.6213 1.76442 1.71867
11.8362 3.92902 8.18352
24.5301 4.69499 8.535
17.8284 2.04982 3.23264
25.9541 0.686958 3.58349
16.134 5.08784 9.18613
25.74 5.49277 10.7733
12.8632 3.22873 7.08358
21.6423 2.79591 5.012
15.3627 3.86274 11.4768
32.9082 4.28422 6.2494
25.4161 1.61898 3.02822
18.2436 2.34254 4.30736
19.381 1.48278 3.3055
13.8624 2.87361 5.25482
24.2957 1.30361 3.48323
20.619 1.47428 1.84131
24.6508 1.88855 4.16205
17.361 1.31087 3.91728
20.6418 1.11047 1.57245
15.6698 1.28912 2.89613
17.3672 3.00038 6.40798
18.7749 3.0551 7.24463
16.4293 2.18 2.89404
25.0309 1.07462 1.84306
14.198 0.912371 3.12972
19.1978 2.28836 3.88708
11.3168 3.47211 9.07455
31.5711 2.49962 3.92791
15.0435 0.855067 4.41805
22.8531 2.35698 3.56163
15.0581 0.79829 2.49655
22.1618 1.22458 2.69883
18.8887 1.77624 2.83854
21.4999 1.50719 3.74411
27.3714 4.62324 10.7024
10.9454 2.27879 7.07611
22.9468 4.47253 8.02349
15.137 1.31584 1.53912
19.3942 1.16981 3.30795
17.7963 2.11929 5.51579
26.0975 3.93185 9.52568
20.0191 4.12359 6.03326
21.4799 1.25468 3.40137
14.9946 4.67682 12.229
27.7988 2.68956 5.58221
21.1097 2.26294 1.8764
16.471 0.951196 1.09247
20.597 2.83652 8.19271
15.0714 1.49319 2.69333
19.5916 1.48439 5.19447
18.0561 4.5405 10.52
24.6991 1.9926 4.78129
12.8904 5.7962 11.2484
22.8263 0.973814 2.23948
16.9942 1.84192 3.96241
16.0036 0.871577 4.11671
19.7503 2.74499 6.93717
15.575 3.92426 8.36409
20.8974 1.84035 4.15044
15.7103 1.95264 3.56733
20.725 2.34359 3.76209
16.6335 1.83321 2.28337
18.8889 2.21899 6.69398
15.8848 2.7832 5.53227
21.9147 1.87104 4.54871
16.793 0.625589 2.54367
21.0105 1.07392 1.74903
23.1662 3.9344 10.7181
13.2931 0.856046 0.859632
16.9879 1.03327 1.51173
18.9757 3.22858 7.68395
20.1186 2.04996 6.57555
11.3504 1.29986 3.36908
23.2021 2.15819 7.19483
14.9115 1.48269 3.02871
21.5691 2.97874 8.12169
15.8883 1.81348 3.70227
13.6585 2.24452 5.609
19.2507 3.33755 5.79123
19.5126 2.2844 5.48026
17.0417 1.44562 4.59046
14.7774 0.951496 5.05214
11.5874 3.56944 5.86617
11.7245 6.00579 11.7913
21.9259 2.61162 5.46175
16.9647 1.51383 7.52865
22.2347 2.19261 3.308
15.5208 2.38144 5.21397
16.0595 2.40606 6.40453
21.4282 1.86348 2.86353
19.956 0.953904 2.19117
18.3583 1.41759 6.32753
12.547 2.20152 4.72207
22.5534 2.60435 3.24408
12.9779 0.978473 4.08662
19.6277 0.606538 1.93451
10.6973 2.13431 3.73238
18.5495 3.06421 7.1706
17.4967 2.28763 3.50752
16.8068 2.44482 8.69297
15.158 1.54533 4.65836
15.8369 2.45954 4.7704
14.892 1.02462 1.88577
10.8832 2.5411 5.9414
20.1202 1.0108 3.06979
13.3184 2.49155 5.25095
16.9871 0.674399 5.02287
10.5752 0.931164 2.01868
17.597 2.64062 6.87334
14.0633 1.85651 2.02032
16.0469 0.787995 2.47954
13.528 1.18774 1.96773
14.3313 1.32014 2.8875
13.9232 1.90351 2.50754
13.7954 2.15536 8.5632
21.9869 2.34493 5.53698
20.4937 2.44218 5.9018
20.1481 1.9058 3.47392
11.3318 0.912523 2.58453
16.9366 2.18668 5.12721
13.2587 3.12355 8.87719
22.0941 4.01312 8.84703
15.9062 1.57409 5.40741
17.6916 1.98569 3.2137
16.9566 0.763362 2.6461
17.7514 2.58683 7.34656
15.051 2.14795 4.61599
15.6866 2.5913 5.08984
18.5297 1.54502 3.59595
16.6318 3.53803 12.8601
19.3715 1.24641 6.71004
13.8558 2.71741 5.01197
14.6599 1.82253 2.74598
14.5159 2.45043 4.35394
19.5029 2.3809 4.80291
13.5147 1.48952 5.33249
11.9745 1.37226 4.03575
15.9519 0.870498 0.852509
11.0771 1.97532 6.10693
22.7987 1.16286 4.71446
13.9454 1.90326 10.2109
18.1931 2.28926 2.13902
12.763 2.89544 13.1606
23.2052 4.22563 7.95337
17.0623 2.91027 4.40479
15.7675 2.4736 7.45599
13.4845 3.64695 9.16605
19.1318 1.65836 3.49788
17.662 2.17474 5.48177
15.0733 2.13365 4.13758
23.6874 3.04489 11.1441
15.3271 2.40943 2.69899
18.4016 2.73997 7.15757
13.4406 1.27481 3.508
19.9751 1.68497 3.57111
15.1832 1.44349 3.94185
17.3 1.14856 3.85091
14.9527 2.1035 6.56365
12.474 2.77469 6.48267
17.636 1.50713 4.37848
13.0721 3.43486 6.06517
20.4933 2.7204 11.1598
9.56602 2.96063 6.66352
17.7816 1.34402 3.06754
9.44471 1.10595 4.24276
18.9797 2.09001 6.49124
12.3926 1.90688 4.69144
16.9866 1.88234 5.22286
13.7408 3.9084 9.42336
14.6346 1.04537 3.31733
12.3189 1.60886 4.62836
13.313 1.66092 4.38191
15.8176 2.13965 5.13507
12.9681 2.5768 7.14367
15.1766 2.29846 4.12634
14.6933 1.77612 4.77623
20.9069 1.63575 3.33398
12.5069 1.14236 2.75242
18.8218 2.65651 12.9281
11.1159 2.94017 3.60551
12.3626 1.30956 2.86
13.0922 2.02964 4.80503
11.1629 1.54026 3.72637
16.6477 0.687972 3.10976
15.0275 1.48279 4.51216
20.2882 1.17066 1.96742
11.481 1.03458 5.55561
18.6819 1.00836 1.5851
13.8269 0.596301 1.91294
14.6774 1.7833 4.59695
14.7462 0.915171 4.46971
15.1279 1.07672 4.18397
12.641 4.81988 7.32005
12.8262 0.66196 3.14784
17.2939 2.1526 3.75293
13.5049 2.18719 6.16765
17.4117 1.22544 7.52266
11.2972 1.68276 1.81507
16.356 1.70562 5.30669
12.9272 0.480455 4.46292
19.1026 1.0977 3.22385
15.0271 1.64777 3.24826
12.6722 1.91299 9.33767
15.5505 2.63481 2.6921
11.4377 1.46843 5.05515
16.5537 2.7493 7.1312
15.6637 1.01717 1.86185
20.1053 1.45073 5.41737
16.4466 2.80979 7.45039
16.4666 1.76131 1.85464
11.5097 1.73254 4.62317
13.2764 1.75809 7.44006
12.3041 1.56015 7.45119
19.8721 2.13577 3.28636
16.2037 1.30876 4.45939
13.2546 2.77152 8.36457
10.2448 1.33856 4.78196
12.5326 1.85864 2.6414
14.9022 1.39233 4.20196
11.7345 0.513469 2.16036
19.8145 1.39363 4.08525
13.603 3.05272 10.5404
15.4818 1.48824 2.58359
10.3325 1.2231 2.71582
13.0498 1.62861 5.49309
11.1977 1.59017 2.89254
13.406 1.61149 5.07491
12.8904 1.73765 6.72171
11.9658 1.69078 2.56595
16.384 1.67971 10.1285
10.4485 1.58613 2.66569
15.5168 1.46083 6.24009
13.7762 1.1571 7.91886
16.1261 1.97274 4.03774
11.8618 2.98775 8.20838
18.9029 1.70135 3.95519
12.0598 2.48538 6.65931
14.5806 1.89395 6.34322
14.4827 1.10629 0.79875
11.8365 2.30856 6.05033
16.6298 0.840157 2.22037
11.4592 1.40558 3.03515
18.8453 1.89489 5.9007
11.4226 1.65906 3.77463
14.6826 0.701419 7.90709
9.54024 5.29346 14.0833
17.3097 2.11889 2.19898
11.2138 0.501568 1.99067
13.0652 0.739411 3.09279
15.1489 1.98797 8.15366
15.9892 1.86095 5.37417
14.4101 0.976899 3.16845
13.5188 1.00622 1.87983
17.6596 2.0838 11.0888
10.1665 2.53073 3.01625
17.6528 1.00186 3.59238
9.38541 1.45052 3.4582
15.9261 1.98438 5.11597
11.2549 1.57822 6.19382
10.3097 1.25326 3.50104
11.3648 1.05289 4.6247
14.5163 0.576347 1.44259
16.914 1.73015 3.13412
8.99817 2.29017 8.73603
18.5296 2.42609 6.8315
10.7272 1.70024 4.89494
16.1554 1.80612 3.12529
11.2209 2.8611 10.7014
11.5771 1.3758 7.83718
10.0865 0.729975 3.09266
10.193 1.93298 2.99243
14.0959 0.748618 3.97836
12.6772 1.84291 5.5363
12.6596 3.08043 8.56771
10.9899 1.21499 6.55672
13.3581 1.93367 2.95229
9.67216 2.23876 9.97901
16.2052 1.17282 4.42313
9.72024 1.2563 2.13676
15.4951 0.588121 2.02556
12.41 0.392647 0.166743
13.6741 1.00592 3.18508
11.8796 0.643162 2.22433
9.96019 0.589477 3.28809
12.0796 1.93672 7.13375
11.556 1.67748 6.28168
16.77 2.40464 4.98792
11.263 0.594471 3.52728
16.6743 1.18071 2.60079
9.42316 1.24756 3.50503
14.8414 1.1739 2.69753
8.73457 0.600046 2.64205
11.5946 2.20833 9.84228
13.7282 2.82805 9.11232
13.2567 1.20254 1.46478
13.0385 1.10971 2.84104
8.97006 1.92671 6.2084
17.9645 0.948953 4.1568
9.87512 1.80809 4.71138
12.3117 3.23201 7.48373
10.2556 1.23511 10.3787
19.9232 0.918474 1.71436
11.8731 1.2853 5.62855
16.5314 2.10608 4.96762
11.4157 1.00518 1.83209
11.9333 2.76937 8.25207
14.7391 1.44242 7.38477
12.4963 1.52967 9.15821
14.5244 2.93351 6.81808
12.6548 2.03847 5.19177
13.5929 2.21167 5.0388
10.2874 1.75678 5.23343
17.717 0.731656 5.82793
13.2693 3.84258 8.74303
15.1512 2.11641 7.19388
10.4771 1.25492 5.70286
9.39484 0.826502 1.88384
11.8694 0.819111 1.67292
11.8411 0.880905 2.31395
11.4598 1.24752 7.60089
10.954 1.98719 2.25564
12.6322 2.39129 9.57189
12.6945 1.34484 1.67408
15.0029 1.6198 3.56989
10.3992 1.61324 7.85177
17.4104 0.531481 3.20696
15.2885 2.54823 6.43893
10.6578 0.356608 0.961404
11.407 0.145901 1.2657
11.676 0.940595 3.51503
12.1906 1.74724 4.33628
12.566 0.515239 4.24667
16.3987 0.415326 2.0569
12.4398 1.75439 2.75604
16.1273 1.05843 5.56802
7.47746 1.13099 4.61275
13.7306 1.32059 1.99187
10.5714 1.34991 5.60682
15.5561 0.51064 0.469654
10.8859 0.957053 3.52198
11.1293 0.484325 5.38544
14.8883 2.05689 6.4721
13.1381 2.24629 6.17947
13.9324 0.894797 2.14644
9.96571 0.261511 1.83514
16.6353 1.48886 3.8231
9.78275 1.48417 5.74483
14.3949 1.57093 5.41809
8.11273 0.742113 2.42554
13.1714 1.62914 2.77058
12.0859 0.84223 6.26796
9.76932 0.958813 4.07339
12.3761 1.51997 0.926649
11.1351 1.29563 2.27741
13.2033 1.04593 6.55522
10.1117 1.6984 3.27094
13.9985 1.06581 6.61946
11.1051 1.27206 4.95174
17.8979 1.91782 4.29275
9.0211 2.02428 8.67283
13.0857 1.13446 3.35684
10.4933 1.39611 5.13074
12.3565 2.44946 6.02564
13.6776 1.68019 6.23991
8.4201 1.03562 5.05883
11.0155 1.02955 2.75638
9.39655 0.895892 4.71027
13.3349 1.38927 5.19522
13.0649 1.97195 3.92738
14.2248 1.39339 4.66812
8.12688 1.31926 5.74198
11.1969 0.927963 2.62888
11.0404 0.760411 3.94099
11.4214 1.37632 5.37175
10.042 1.147 2.20646
10.1271 1.33076 4.09911
12.2089 0.668393 2.8048
10.4262 0.51382 0.857681
14.2473 0.496002 1.47425
8.76895 0.967704 7.05345
16.6055 1.30221 3.85353
9.40867 1.34156 3.59322
13.0931 1.33313 7.85939
10.071 1.98956 2.49896
11.8029 1.73108 8.79523
14.7397 1.33878 4.03378
9.13351 2.39857 9.25948
16.9216 1.45946 1.60631
11.579 2.11276 6.03085
12.4628 0.457515 4.44896
10.5292 0.721326 2.1936
13.7621 1.35764 4.88177
9.33664 0.864012 2.29033
14.2529 1.80995 7.58183
8.33367 0.427191 3.02144
10.0208 1.44747 2.86451
11.5376 0.492101 4.57868
11.5934 2.64196 5.87682
12.6163 0.497871 2.28559
7.71107 1.25022 3.53474
12.5107 1.77385 7.80322
10.755 1.68572 5.20549
14.8949 0.689971 4.27528
9.73735 0.992138 1.39095
14.1011 1.39076 4.10302
8.8455 0.564968 3.45886
10.5247 0.926017 3.6016
10.9915 0.309393 3.69355
11.2689 2.28153 7.19267
11.2714 2.21887 5.22692
10.4949 1.32687 3.12687
13.5697 1.6502 5.83544
12.43 1.95169 6.0509
11.3392 0.761707 4.91309
9.91089 0.858525 2.07303
11.5778 0.578535 3.37891
9.56302 1.04602 2.6072
13.6676 1.23891 6.87644
10.3722 3.0567 10.128
9.3053 1.18756 7.89987
10.9779 1.17067 3.60962
11.4571 2.34406 4.9243
11.5294 0.746859 3.16091
9.92919 0.456697 3.83118
13.8199 0.636185 2.3076
8.74306 0.859669 5.12145
13.9074 0.68847 3.75137
9.77325 0.499996 3.553
13.714 1.87528 7.71829
9.24528 5.28291 10.6585
8.99084 2.2012 6.26636
11.6889 3.28821 13.7833
13.1416 3.5693 10.1693
11.571 1.4367 4.24572
8.06272 2.98772 11.1512
13.7431 1.10198 3.68329
9.98908 0.800316 3.03628
13.8616 1.27175 4.98913
7.9646 1.08613 3.94469
13.1661 1.05438 5.46573
11.1407 1.00607 4.64313
12.4131 1.14593 3.107
13.7092 0.776396 3.20581
12.9558 1.96774 2.71323
11.0874 0.194265 2.03151
10.9952 0.571231 2.45346
14.2655 1.30353 3.13648
10.3401 1.83395 8.17714
11.9948 0.588327 2.75768
8.63555 1.36847 2.8172
12.7661 1.91684 6.37818
8.85288 2.51785 9.46938
14.135 1.53141 6.53698
10.3533 0.46663 1.74765
11.485 0.482248 0.543003
11.5237 0.636932 2.3081
10.0288 0.630746 3.19526
13.4256 1.86897 6.4071
8.43857 1.12001 5.1633
11.4676 1.00934 4.30939
8.55298 1.28067 1.79525
13.5963 1.28274 4.12276
9.34897 0.337929 1.98945
13.0373 0.884048 2.31546
9.75128 0.853137 4.45003
10.6071 1.0326 3.29104
10.5212 1.36411 3.64126
10.0235 0.156989 2.44824
14.9334 1.80979 5.49984
8.65256 1.44355 7.3647
11.7025 0.77573 9.41232
9.09706 3.76653 6.16989
11.9307 0.819209 4.2677
7.7598 0.702252 2.82916
10.6961 1.96651 2.14618
9.92486 1.23893 6.83739
11.3347 1.44913 5.23617
12.3088 0.639952 2.39879
8.23647 0.823906 2.18142
12.9348 0.965046 4.06618
8.25303 0.543729 2.2123
13.1569 0.524873 2.53435
7.97853 1.05837 3.26861
13.242 0.599761 1.86677
8.91978 0.580601 4.15095
10.7444 0.965792 1.70268
11.0509 0.651894 4.0572
9.24775 1.3936 5.82428
10.7839 1.93498 2.97641
11.2356 1.71069 10.5118
12.4888 0.951596 3.25435
10.5465 1.18584 3.54527
13.1444 0.494143 3.87352
8.05695 0.853714 0.657137
12.7804 1.49241 3.73752
7.57278 0.753259 3.61361
13.5433 0.715682 2.30288
9.52806 0.87489 6.26147
10.7037 1.7387 4.03263
9.47941 0.770055 3.06192
9.19034 0.932552 3.15676
12.0713 1.19196 8.20249
11.2786 1.02179 0.709417
12.655 0.921422 3.3808
7.95361 0.303863 2.24913
14.215 0.898043 4.04005
8.33736 1.94631 4.31619
12.3586 0.97947 2.80791
8.04812 1.10634 4.58121
12.4385 2.05787 4.29497
9.5942 1.11924 3.58471
9.91073 0.45926 2.19335
12.0766 0.932483 6.5628
7.20252 0.916837 3.66424
11.2763 0.409836 3.11089
8.64637 1.36579 4.00209
11.0779 1.32753 7.08555
7.65539 0.849637 3.36702
12.5294 0.582702 0.838155
9.16291 0.750416 1.26611
10.335 0.320008 1.67537
9.21884 0.658655 1.76864
10.9748 1.2089 6.83647
12.7008 1.48898 7.51858
8.55094 1.4442 3.45079
10.3194 1.2703 5.02976
6.1546 0.322067 1.63637
11.7866 1.02364 6.11568
8.0622 1.65114 2.54841
11.5499 0.972645 4.50519
8.68972 1.96938 6.26779
13.3754 1.17569 5.1697
7.76326 0.806347 1.63648
10.8327 1.01154 9.10477
13.5998 0.833305 2.86328
10.168 1.56186 4.37145
11.9059 0.751129 5.13713
6.16238 1.0203 4.32736
13.9923 0.627244 1.71234
8.51331 1.34329 5.2518
12.4156 1.88318 3.37923
7.20165 1.06951 5.73516
13.4042 1.57864 4.83471
7.79114 1.03222 6.36799
10.9273 2.04572 4.52582
10.9287 0.337094 2.3027
8.35011 0.475612 2.13891
10.6603 1.06706 7.02883
9.99655 0.471241 4.31931
11.1009 1.31818 0.945822
6.92776 1.28407 7.00762
11.1087 0.929637 1.48845
7.58843 1.31297 8.99142
15.9665 0.938446 1.64484
8.53986 1.17927 2.32937
10.3519 0.352374 1.36911
10.4111 0.269842 1.51212
8.84074 0.362468 2.0624
11.2522 0.761209 1.93469
8.91084 0.178358 0.413058
12.1497 0.421087 2.18855
8.35275 0.754276 1.95648
11.1187 0.431218 1.90021
7.79659 1.31246 3.37592
12.7562 0.497714 1.87093
9.97878 0.642869 4.43292
10.0384 1.95444 6.92797
10.5833 0.938314 3.97408
9.90793 0.798165 4.13072
10.6078 1.52413 6.0228
8.49699 0.805317 2.31024
13.1518 1.90303 10.0479
7.05298 1.48462 3.53874
12.9552 0.795979 1.33341
7.73916 0.647703 3.83008
14.6692 1.47473 4.43068
8.27297 0.514996 1.99581
10.8919 0.320236 1.43723
9.3972 0.885899 3.37948
9.39653 0.851843 6.82998
11.0856 0.984892 4.81459
6.66591 0.243705 2.98406
10.8915 1.16175 2.37708
8.52216 0.879481 5.16227
9.4545 0.829294 4.90035
7.06536 0.827818 4.46354
9.4067 1.98305 6.87569
9.33103 0.764786 1.54699
11.1955 0.567204 4.28858
10.1607 1.39478 4.96788
9.22371 1.27184 3.38608
10.9819 0.655002 1.89478
9.64177 0.653755 2.50853
10.8566 0.642243 2.01743
8.0544 0.351203 1.9832
11.6152 0.720142 1.66029
7.93056 0.747437 2.29322
13.3165 0.883912 2.05956
7.55164 0.93164 3.52166
11.4281 3.88401 18.4923
11.9101 1.78407 6.85948
12.2829 1.19802 5.35204
12.4268 1.46168 1.58117
9.27976 0.770162 3.74379
12.8883 1.07291 3.71778
6.77366 0.24087 2.55735
13.0654 0.344182 2.64222
7.13467 1.18294 4.10325
12.479 1.18194 2.58864
9.3003 1.51613 7.26528
13.282 0.79971 2.7771
9.03878 1.2519 4.5074
11.0579 0.787812 2.73907
11.3116 0.916286 3.21379
10.2106 1.92952 2.84361
10.9607 0.495274 3.65581
7.15819 0.349686 2.32504
12.939 0.556387 2.79176
7.09634 0.11399 3.03964
12.4179 0.737961 1.20086
8.24888 0.642036 2.74182
10.4068 0.592358 2.42176
7.35118 0.643002 5.42929
10.0381 1.93226 5.15332
12.5146 1.18717 5.74396
9.83558 1.07552 3.86192
10.7941 1.21289 2.95951
9.08471 0.657053 4.32209
11.9343 0.92929 2.24127
7.74652 1.79794 5.1385
12.969 0.455655 7.15637
8.38843 1.64768 4.379
10.8829 0.935615 2.45965
9.79387 0.902152 3.63726
9.69956 0.729042 3.5409
10.4576 1.0949 3.51206
9.38214 0.659115 2.19863
9.32729 0.800885 3.51517
9.14732 1.02624 5.53278
11.5859 0.778223 2.43829
9.23482 0.82536 2.97181
12.5672 1.33566 3.27847
8.39324 0.776975 4.25444
12.9844 0.906307 1.32086
8.92718 1.10292 4.1868
9.05793 1.25454 4.60669
9.61944 0.529104 5.54081
9.60127 1.55179 4.03786
10.36 0.464025 1.43103
8.65145 0.526275 4.46414
10.1411 1.61007 4.08299
9.42851 0.53285 4.16231
13.4584 1.87406 4.98866
7.89157 1.92122 5.62092
11.4555 0.648485 1.84574
7.10476 0.549357 3.26635
12.3577 0.514339 4.47471
8.88245 1.27737 6.24028
9.38032 1.44279 2.31447
10.7566 1.11958 4.11384
10.4941 1.3557 5.18586
10.6696 0.219007 6.1729
7.39101 2.31591 1.7368
12.9577 1.4679 9.51278
7.11468 0.892703 2.98376
13.2303 0.607731 1.8741
7.20854 0.901155 1.72136
11.7322 1.46443 9.72937
12.1452 2.27328 4.80126
8.50504 0.25465 2.43514
9.95194 0.874172 2.75792
9.16585 0.568893 3.5456
8.49075 0.665996 5.46613
8.29551 0.972141 1.73499
11.1447 0.42676 2.73511
8.08279 0.714517 4.61977
9.51918 0.941754 3.95111
7.83426 0.866283 3.26947
13.13 1.25545 4.43609
8.94429 0.802689 2.90168
9.65655 1.2727 6.39838
10.4325 1.00762 1.87533
9.8903 0.748061 1.92695
11.0944 0.461219 1.6965
7.7626 1.15684 10.6482
10.2424 2.2711 4.33045
7.86477 0.836913 5.22021
12.3023 0.962946 1.75955
7.0223 0.820451 3.80216
11.1868 1.153 2.20662
8.30236 1.2638 3.3563
11.5395 0.466191 3.75835
9.5796 1.09523 4.51897
10.376 0.670204 2.31925
11.9826 1.08138 8.20787
9.44887 0.986993 7.37377
12.6938 1.71148 4.9235
9.13214 1.211 5.64776
11.3595 1.2743 4.12831
7.54963 2.15323 9.32477
11.8062 1.31329 1.93683
6.81062 0.879187 2.35998
10.46 0.937683 5.22333
8.46466 0.474841 3.8271
8.53314 0.796519 1.78284
9.72659 1.23121 2.94597
10.675 0.938242 2.35175
12.1581 1.13506 8.34082
9.55612 1.2805 1.81354
13.5033 1.33927 9.47276
8.67507 0.700282 4.43528
13.9166 2.43564 11.6693
6.26479 2.47924 4.69557
12.8229 1.66658 7.54466
6.26791 0.921786 2.34852
10.8374 0.523053 1.03125
11.0841 0.360242 0.969823
8.18955 0.723677 5.22867
10.2346 1.50211 4.92601
9.17305 1.34837 7.2954
9.72437 2.2339 9.3393
9.76495 0 0