# pn-170911/CsII-15-PTBB-1280-1959.psd
# Power spectrum* (dif=0,1,2) (really just |FT|^2)
# NOTE: only the first half! (symmetric)
# weeks: 1280-1959
# 3 clock-days, 1 excluded
# PSD: 1441
17868.7 1.76434 0.0231417
1.0323e+06 17.465 0.00346829
7.18523e+06 159.245 0.00687193
2.34099e+06 109.311 0.00733565
5.02274e+06 302.822 0.0306854
494915 30.4623 0.00414972
950349 145.605 0.0209921
440740 87.8839 0.026096
113758 28.3354 0.0100044
106914 40.4733 0.00981551
297377 95.573 0.0532916
150682 112.372 0.0695749
172238 148.824 0.122547
66332.8 33.4681 0.0322782
94122.6 90.1207 0.109773
69142.1 42.4698 0.0505143
53721.7 43.9709 0.053588
38906.3 34.4852 0.0567698
36662.2 45.8019 0.0644672
48043.8 98.8019 0.15771
54291.9 70.9893 0.136049
20041.5 64.2401 0.163929
38954.4 66.1061 0.138393
29227.7 77.4227 0.169911
12228 40.8979 0.101652
22875.4 44.2429 0.145897
23410.6 70.3263 0.211312
9097.34 46.791 0.16954
16704.3 71.5094 0.259288
26544.4 131.903 0.593452
16965 104.296 0.42642
19171.8 76.0499 0.327722
20125.4 87.8484 0.464106
15961.8 74.194 0.35994
1797.36 12.4923 0.0656039
10937 31.4797 0.16713
26353.8 155.84 0.949047
17307.1 131.728 0.878387
9636.85 44.7622 0.287993
10664.7 100.027 0.673642
10839.7 95.9525 0.71175
5261.54 60.1683 0.453818
5677.46 49.1342 0.421454
9163.68 81.6031 0.8076
9629.2 131.744 1.25988
9517.1 57.7646 0.525594
18709.9 152.648 1.59386
8665.39 66.8289 0.684574
7871.26 77.838 0.791536
8674.09 95.0167 1.11912
14884.2 129.361 1.54921
5571.89 50.8932 0.6095
3495.73 60.9124 0.73437
11685.5 152.541 1.88815
2630.53 40.4922 0.547207
2346.52 40.9005 0.568664
3783.14 62.1533 0.98702
12379.4 179.91 2.81925
7846.72 113.793 1.79909
6961.16 112.587 1.86893
2609.23 22.9633 0.362703
6939.01 164.909 2.90068
9769.72 176.256 3.39623
6221.48 96.447 1.75158
9228.95 134.506 2.57049
3260.33 42.6003 1.0143
5538.72 83.6208 1.61159
6607.84 149.416 3.06973
6493.93 107.352 2.37673
1098.23 29.2122 0.589224
6362.75 139.896 3.19864
3614.38 78.4247 1.94264
1794.27 40.9869 0.99606
1750.29 33.4357 0.807757
4002.64 139.687 3.69954
3600.02 61.1874 1.57707
2096.18 57.4212 1.63314
5283.05 177.042 5.26923
6873.17 157.449 4.14895
2232.53 80.0513 2.55347
8213.73 258.097 7.74076
7451.55 151.291 4.4333
4556.26 96.8429 3.21692
2483.2 62.9559 2.16441
1654.14 59.3155 1.8959
2114.77 76.1239 2.61194
240.552 5.46984 0.196466
3174.64 98.1381 3.67592
1956.06 99.3134 3.55261
4253.14 121.139 4.55948
3612.39 139.562 5.49142
2704.93 74.7644 2.753
4239.03 112.261 4.53614
2400.42 91.8413 3.83959
1239.09 55.0483 2.10718
1415.15 67.7211 2.88051
3621.06 113.598 4.95492
1764.09 77.0148 3.67805
3115.98 107.57 5.03126
686.218 36.983 1.81922
1673.95 96.999 4.27755
2781.28 107.085 5.30106
2067.89 95.8898 4.80027
1562.88 85.3952 4.61057
4130.8 177.661 8.79477
548.462 20.8516 1.10743
3181.18 185.803 9.69131
1115.16 53.2334 2.88318
1132.41 73.8905 4.24987
587.627 23.572 1.28306
2109.21 97.7415 5.58454
1161.57 61.3885 3.87553
2535.23 119.47 7.61127
524.138 28.9232 2.21871
1295.34 52.8148 3.22877
838.154 48.0094 2.71154
457.374 38.0437 2.11627
854.422 67.8299 4.19716
1161.3 111.343 7.27683
408.288 13.3623 0.92886
648.847 49.1617 3.51178
1227.2 67.5864 4.31224
1166.41 80.2368 6.12542
2982.62 184.205 13.0599
1382.67 66.5646 5.0527
1114.57 68.4468 5.23835
1187.32 81.3422 6.40145
567.541 46.8489 3.50545
1085.17 49.7123 4.3177
191.726 25.0455 1.68173
2298.38 199.217 15.4013
1074.3 119.736 9.62631
340.694 35.7834 3.34582
1181.67 122.168 11.0212
642.067 40.3276 2.71113
957.602 85.8188 7.30476
1168.82 78.0471 6.97685
949.409 56.9061 5.07357
585.691 54.4433 4.66463
935.22 75.4627 6.9664
752.387 78.1662 7.56963
510.573 33.2528 2.51693
641.211 36.8232 3.51307
1995.25 152.501 15.5565
1011.33 94.9905 9.41092
296.273 24.9407 2.06639
273.267 29.712 2.8641
929.647 99.751 10.4262
1385.4 137.992 14.9496
488.381 37.8829 3.69761
569.834 74.5688 7.03053
812.018 91.3098 9.81571
217.493 23.8513 2.93965
1202.4 105.845 11.8787
365.878 66.7837 6.65788
294.024 42.8695 4.92821
400.551 40.4449 4.64367
747.077 62.3933 6.81213
940.876 75.198 8.94632
354.391 39.6638 5.70609
211.106 32.8974 4.69028
560.522 65.9795 8.03144
1032.15 98.1441 11.7669
719.447 92.2393 10.4006
525.347 65.7143 8.47166
190.559 18.6691 2.61108
115.359 15.5974 1.85472
498.309 73.4397 9.48607
970.638 152.3 20.1787
336.07 31.8444 5.13305
399.33 64.845 9.09389
408.2 33.9773 4.12556
89.6615 6.63213 0.915218
234.796 46.9066 6.58868
94.0868 14.3738 2.13105
350.253 46.136 7.27214
747.082 85.2953 12.4465
464.345 47.0546 6.0313
630.721 86.5667 13.5173
273.313 20.526 3.37177
180.382 15.6142 2.59879
183.971 34.7852 4.69578
238.401 37.9937 6.61756
366.332 58.6619 9.37005
143.633 23.4938 3.59415
115.365 25.9284 3.52776
265.689 61.5666 10.4863
373.473 33.7527 5.08645
414.578 67.4069 10.1956
242.143 20.79 3.54226
404.808 47.138 8.31273
739.195 117.972 18.8617
451.54 51.041 9.95318
165.374 40.474 6.82651
438.683 62.2356 11.4324
349.337 74.4758 12.1343
106.773 15.692 3.10094
627.468 129.299 23.4692
216.672 37.3547 7.11671
157.904 14.68 2.41896
81.9178 15.4483 3.12217
232.247 38.6546 7.95222
295.377 68.8686 13.4399
121.68 12.8192 2.12925
211.691 31.7836 7.15977
204.937 34.6031 6.45981
326.459 30.087 4.87524
485.298 62.3713 12.1233
630.372 94.781 19.9421
297.933 50.6255 12.1825
277.187 65.4645 11.9158
190.507 47.5801 10.1348
118.552 27.955 6.36312
48.3723 26.2379 5.82813
567.578 83.0691 17.2241
254.663 74.9946 17.4254
494.205 120.041 24.4331
153.683 34.1804 6.7696
313.985 48.0696 9.40238
213.055 55.2252 12.0296
169.644 37.65 10.1069
174.774 68.7766 15.8123
37.9874 17.5785 4.23441
72.4866 15.8264 4.46764
261.675 69.0127 17.608
218.679 20.103 4.14225
27.0252 21.3473 5.93601
163.938 14.0818 2.79934
99.7175 20.2492 4.81077
258.176 67.744 17.481
128.1 17.1088 3.61218
149.194 19.0246 4.30907
144.659 21.6113 6.03283
296.296 44.5647 10.5924
273.812 78.8551 19.9542
144.142 52.2619 15.4261
85.0748 3.5982 1.27506
242.183 52.7144 12.3004
136.636 18.3522 4.88667
106.102 23.4632 7.56718
113.48 34.5735 7.8769
49.8011 9.89623 2.65261
146.308 32.528 8.70639
102.355 20.9874 5.89328
116.769 39.9234 10.4175
145.853 45.8401 15.2197
364.603 59.2215 15.2188
99.3553 17.8042 6.39407
117.524 28.9435 6.67704
135.396 32.5788 9.42592
132.746 32.6306 10.443
144.712 57.353 14.7667
57.6906 34.8015 11.4814
44.6366 25.6461 9.79219
205.106 42.3535 11.4286
219.512 31.6662 7.75957
110.912 41.0018 12.8791
178.1 42.3148 12.4844
162.301 38.4384 11.9839
275.184 47.0213 13.7272
60.7195 25.6208 8.68794
190.14 59.3507 20.523
229.019 32.841 8.67049
118.688 27.4202 9.64092
262.417 52.4212 16.0576
471.375 144.263 47.9474
130.324 28.1523 9.23011
60.0282 9.50415 4.01825
97.8734 26.4747 8.76081
28.8707 11.8332 3.22583
55.783 17.6751 6.30943
170.108 72.1364 25.3528
26.8762 22.7279 10.0969
451.344 106.06 39.7653
145.043 39.716 8.23086
77.4303 31.0035 12.5373
184.383 63.7925 17.4636
160.792 40.9687 13.2087
77.9069 26.315 9.88519
95.7041 40.1422 14.824
239.141 79.9873 31.7122
131.473 49.246 14.8869
148.991 42.664 15.6245
123.681 30.5392 11.3644
51.1947 8.72463 3.76613
60.7083 28.006 11.4231
82.8127 63.9941 24.7716
210.295 51.8186 18.479
118.046 41.495 18.4995
134.175 39.0349 15.8309
180.271 50.3907 15.9943
75.2458 48.6513 19.4006
108.814 33.1581 12.8835
121.652 30.8972 12.7336
170.614 51.1927 17.9315
129.659 72.8487 30.2476
45.9214 9.55529 2.78654
53.3329 19.7805 8.77582
51.6806 21.5295 9.47986
40.6846 17.1787 6.22114
103.937 27.4587 9.78608
93.2768 36.2296 18.4538
80.7942 31.5294 12.5341
194.183 44.4926 18.1064
143.363 53.484 21.3801
40.7687 25.3256 14.4614
64.8939 26.9966 16.1451
147.352 51.8294 15.6144
128.588 33.5829 14.6026
53.3244 30.7558 13.2164
124.749 38.288 19.6404
51.2523 32.0914 11.6739
37.3573 14.9424 6.39676
37.8936 11.3492 5.70574
66.5218 22.5031 10.0936
77.4649 45.4854 20.8515
73.8466 29.8531 11.6378
47.4873 38.9436 20.1824
44.776 10.9014 4.52925
53.3883 33.5143 13.5571
64.5579 37.2828 19.7509
67.0807 20.9663 12.4005
66.6096 19.3736 9.75613
150.463 48.452 22.8768
87.0486 63.2329 28.226
83.6958 27.4178 15.4534
50.174 5.3799 3.22051
95.1247 34.0836 14.1545
46.651 32.8965 15.8171
56.6228 21.1641 11.384
205.631 71.3878 38.2806
63.4683 58.5758 32.0254
134.645 44.6887 15.957
88.7696 29.7861 17.4288
46.5502 15.0909 5.76305
101.454 34.798 15.2198
125.207 37.3523 22.0966
58.1837 56.3916 30.4191
126.763 56.0144 30.7214
71.0234 9.26404 3.2282
90.7611 24.14 14.1543
119.369 59.4659 25.952
104.015 30.0932 16.172
99.2225 40.9824 25.0159
58.3508 28.3098 19.5436
60.1299 14.3988 6.06571
23.8806 6.68275 4.62407
79.2904 51.6809 25.557
25.9128 9.32114 4.68661
78.8948 27.1428 17.0517
52.6396 20.3798 11.5448
20.0538 27.2809 12.2322
38.5068 13.4491 8.21434
5.19197 8.786 5.85283
29.2092 33.1223 16.1885
82.6054 35.1856 22.9026
23.3623 24.3189 11.8849
40.904 57.999 33.5818
66.5301 22.8882 13.4931
11.5766 4.99381 5.14084
39.2382 6.67185 3.46125
161.87 130.344 87.3644
169.264 58.559 32.0662
87.6165 47.55 22.721
88.9435 31.3229 19.0438
104.801 73.4605 45.5716
44.8616 12.5652 7.92614
60.1217 28.9599 16.0969
35.8465 5.058 1.49396
61.1666 28.8111 22.6583
55.8742 31.1797 13.7384
25.0629 23.9485 15.6178
35.6561 18.2186 9.38611
17.0982 14.6044 10.1543
31.8551 16.9041 11.4408
33.9961 16.121 9.25104
11.7801 10.063 8.48914
50.1278 40.2614 30.6364
36.176 11.44 7.74299
80.5805 21.7821 10.6857
12.5447 5.58198 3.65616
42.0561 33.5627 22.9548
39.8283 20.0223 14.8103
32.5325 10.4455 6.04262
54.1179 30.0757 16.6382
14.8061 13.8166 11.3224
39.4105 18.4218 19.965
136.419 61.7617 36.9565
58.9239 16.9377 10.2396
71.9129 34.807 23.3056
20.1282 10.5318 4.38292
10.59 5.82557 2.35162
11.4538 15.2376 12.0672
14.7223 18.2545 12.2961
39.3217 23.26 18.2822
40.1316 20.3913 14.065
102.795 44.4393 30.7682
45.5794 20.0146 9.98667
21.1285 12.5993 9.30319
23.2526 13.464 11.6373
39.8365 5.59145 2.25214
44.4521 12.0153 10.241
72.6847 54.2673 43.3881
28.2926 13.5702 8.70898
40.4165 32.8626 21.0207
26.9106 8.22708 7.44014
17.9057 18.5364 13.0445
15.0758 10.7067 10.1861
27.9466 8.73563 6.78408
44.6969 27.2589 16.6224
19.225 20.0694 13.3189
24.348 11.7049 12.5829
34.6629 22.6723 18.0456
71.1459 28.861 14.9049
27.7578 27.8249 23.689
23.0364 15.2198 8.55695
19.1871 14.2768 11.5994
66.6899 30.6861 24.6534
28.1288 8.82394 5.39507
14.7098 11.4808 12.6526
47.8078 24.605 15.953
34.6178 18.3624 16.1099
45.1713 21.3489 14.9953
27.3535 24.8819 18.8686
14.7707 6.12836 6.08305
32.3673 11.6457 6.88156
60.5242 44.045 40.9498
22.3007 10.2317 5.04958
6.21501 16.826 12.601
26.5395 7.26882 8.03302
40.5401 26.5381 16.8502
13.8099 14.3912 17.1651
40.0581 24.8645 16.26
10.8376 17.3944 14.4635
13.4824 15.4114 17.4591
50.4187 28.8049 22.9927
49.5016 14.5689 12.622
34.071 18.3809 15.8522
15.2775 14.2733 10.4017
34.8233 9.39556 8.69009
11.7547 4.27365 2.69877
9.06093 12.8966 9.90168
4.60467 10.5257 9.51053
24.1342 12.1846 13.6309
43.9014 40.2941 35.4685
22.9721 10.8465 7.76446
28.6808 10.7706 9.55113
30.1316 17.8431 20.7801
78.7751 33.1312 21.4562
36.3666 22.9952 19.7105
21.7282 27.2904 33.3621
60.8664 37.0319 25.866
10.1283 5.22351 8.0061
24.4944 18.743 18.7481
20.7118 7.81223 8.31356
54.1465 29.8478 19.9767
7.73514 16.9008 19.1786
26.8737 10.2502 8.55234
16.2858 15.1749 17.7206
36.1172 12.7955 8.70643
4.33954 7.35913 7.28847
23.4845 10.6069 7.22652
34.1992 29.4951 29.6898
18.8266 18.9537 27.5905
48.5793 21.9487 14.7375
33.366 29.1064 32.16
31.2188 10.0079 7.95915
51.2005 34.1729 29.3251
2.14917 16.5553 24.2009
38.2077 16.8366 13.3827
15.4439 10.3309 8.13178
16.1189 3.625 4.0218
29.2109 21.9829 22.9036
36.0069 13.7893 9.65001
56.242 39.9261 41.8529
20.9725 7.9105 4.85334
24.2635 17.3904 17.0914
39.8949 14.2078 12.1054
35.0069 21.6662 17.106
32.1774 27.9514 27.3338
35.3214 23.228 24.5
24.224 14.0074 14.3869
69.9701 39.1145 32.7382
32.6483 22.273 18.1438
12.7642 9.18407 10.2591
25.7004 22.3957 28.4005
15.6971 12.5266 10.1795
27.9059 23.9238 27.5038
22.6016 17.9049 20.0675
17.6546 7.96539 9.78162
36.0115 29.8858 24.8297
13.3512 14.907 22.4148
22.8421 7.13957 9.47843
14.8587 3.03444 5.89259
25.4193 23.8509 27.4967
60.9448 29.9085 27.9197
33.4271 16.2734 14.183
10.1071 6.57568 5.40098
5.60752 5.15877 7.8847
36.5514 19.3908 20.159
9.69915 10.6799 11.5527
10.7271 5.48525 14.5939
62.2476 47.6316 40.9066
27.5639 13.5521 10.3118
22.1998 16.3641 17.1807
24.1281 17.3104 21.8569
29.4057 32.4802 41.2089
17.9488 17.2813 14.9289
20.3695 24.2633 31.7886
34.9698 30.1894 35.9358
11.7817 6.24053 3.07961
9.14739 15.0169 25.0857
33.2971 21.1821 16.029
16.883 10.3267 11.6759
9.05776 15.2828 13.7484
15.1727 23.4829 30.7479
22.7006 13.1298 16.6247
15.5737 2.02957 2.23249
17.5874 10.8918 15.2477
46.2881 20.5289 18.1105
22.5213 7.76104 9.18353
27.1148 14.7797 10.9252
17.0837 8.80405 8.88663
14.4887 14.7873 24.0507
8.72375 3.86961 4.47074
16.0937 19.1143 26.2632
46.3649 37.4023 36.975
27.1712 12.2975 6.06584
33.1177 28.7637 31.0437
10.0145 12.7148 25.097
18.5672 13.8397 14.1964
4.15557 16.6146 23.3314
37.4309 23.5619 36.6028
13.4532 7.48948 4.63819
24.0893 23.0048 28.6833
37.3907 23.0823 24.851
8.06344 12.053 27.3953
20.1115 13.7781 18.7625
3.51877 9.08712 8.53966
4.60643 7.10805 9.32405
6.90763 3.74953 5.80752
17.0737 11.8924 17.7103
28.4472 27.7921 27.8947
18.6203 19.1712 18.1924
15.6507 27.2622 36.2718
7.90893 8.66128 13.8335
27.536 24.0414 21.867
16.4123 20.4744 31.2137
20.3827 14.8212 18.7209
10.037 12.2476 11.7875
8.02529 13.0385 15.4033
5.55643 13.2892 21.9337
26.7046 25.2628 29.861
22.0754 15.521 18.3837
8.75667 8.4449 9.34878
13.1311 9.18525 12.5178
11.681 9.27819 14.2073
19.6641 22.9513 25.7855
8.25275 9.22473 12.1586
20.705 20.3917 28.7523
11.7468 15.0328 24.1088
11.7207 15.3876 20.3599
18.7003 19.1125 18.7756
10.7043 19.6481 25.9712
28.08 47.8607 56.4009
21.2253 13.5192 30.1159
35.2977 36.4643 41.2888
9.70333 7.2469 9.40102
2.65165 12.7102 24.4663
28.967 12.7612 11.3707
11.6116 15.5556 18.5014
19.3975 14.2161 15.9212
4.27882 11.22 18.5915
4.72995 8.84301 18.3821
30.0882 18.3085 31.01
19.7213 24.5276 18.5218
21.0622 28.787 38.2864
5.31348 19.1778 38.853
18.464 2.18183 5.16965
20.4137 4.95355 7.30872
26.1604 18.8747 17.337
14.0998 7.81856 17.0325
15.1259 19.4856 29.015
16.0925 17.2275 23.2494
6.31043 3.86228 9.29903
15.7615 4.88153 2.89874
15.2621 13.8833 16.8285
16.4112 12.5668 19.6403
31.3971 20.681 31.7044
4.88102 6.76506 8.93883
15.5929 12.9593 14.4089
4.07859 6.51845 10.9533
4.49756 4.3027 7.63232
2.72916 14.9498 25.8666
24.1745 10.4184 14.5521
12.4086 9.55971 12.61
16.5245 18.9682 24.4022
6.9372 8.64921 14.4924
6.99658 9.53222 19.5442
20.2808 18.7731 16.7596
8.32244 16.9634 29.5119
20.5663 8.63818 6.31089
26.8582 37.0563 56.056
7.46369 10.0881 41.083
35.1214 24.1434 23.466
12.0282 6.63863 9.18731
10.3708 3.88334 6.21347
4.18912 8.67092 12.0235
10.5288 10.2027 25.6084
22.566 8.54909 14.3802
10.5226 5.13871 8.3276
14.9639 4.28763 4.84959
18.4123 13.1517 13.6617
8.7741 3.27295 4.46963
20.2278 9.62239 7.00933
20.0297 24.997 32.3936
10.2091 6.94123 11.2893
9.02269 5.35627 11.263
5.64078 19.3608 35.2379
9.66376 4.7983 17.9051
22.1964 9.75293 6.83897
13.2669 6.19865 10.9978
27.8228 23.7242 35.0342
17.3305 37.1211 56.5666
12.8314 4.61632 3.83979
3.9108 2.94869 8.26603
6.92929 16.0359 26.724
17.3013 16.1893 28.674
10.6858 4.49763 5.50936
7.7709 8.53327 17.6392
23.2332 13.5129 21.251
18.2249 29.7344 46.3451
9.63924 2.44856 3.18809
7.51446 13.5467 19.8821
13.8397 15.3773 20.3892
8.8035 4.37443 11.6804
17.0313 15.16 22.3611
20.3969 16.4906 22.2318
7.3003 5.64912 6.18744
15.4823 16.9436 26.7939
16.5273 13.7188 23.2158
17.668 16.2897 22.2389
10.7263 4.56235 10.6067
10.908 19.9776 32.047
18.6333 13.458 18.0733
3.86193 2.8748 7.90346
3.77737 2.52078 11.3554
17.4411 13.7659 22.2925
6.32942 2.69773 3.09324
12.8859 7.20568 14.8747
12.0973 11.0037 16.7436
3.19587 8.30898 24.6999
16.2498 7.88124 7.61878
18.5978 11.573 13.3392
5.5375 6.76132 10.1351
7.30232 11.1897 25.2727
12.547 9.65229 8.90528
3.73392 4.28241 13.0452
16.1573 15.3292 27.0969
8.39014 8.54189 13.5488
10.9576 5.14394 8.17741
5.69481 11.8611 26.9703
20.7498 9.35036 9.29697
10.5157 17.1867 35.5844
20.5663 18.2396 36.1015
14.4102 5.5535 6.96879
18.5291 17.8066 22.6215
7.4502 14.2407 40.4242
9.39826 13.0196 26.3118
11.947 28.3287 29.3332
4.79081 7.12252 20.1139
19.2397 15.2839 34.8409
5.99679 9.0498 6.44085
6.31923 9.93127 21.0839
10.0895 9.88081 14.8933
5.73216 6.0498 16.821
15.2388 10.5368 16.435
7.05999 10.33 21.6449
8.38747 14.6439 22.2535
8.40245 6.21184 13.435
5.68644 6.56142 15.4059
6.92141 7.80625 17.3554
6.69623 7.10666 10.592
13.9784 13.5285 14.9322
2.8185 4.95053 8.93575
13.8266 13.2744 33.7878
8.38344 12.9913 13.4352
5.86816 6.58022 20.7059
13.4304 12.1675 21.475
2.29303 7.27601 9.07252
7.56746 16.0517 33.6907
13.1284 9.07828 14.6656
7.74661 10.4282 20.2604
5.91825 3.50276 4.55301
2.92729 2.399 6.28207
6.75483 8.73654 14.8999
7.55806 10.6167 26.842
13.8556 12.3065 20.246
4.70797 8.30342 13.4633
13.9322 7.86704 16.8128
7.86208 5.14286 12.1737
6.99714 11.2947 11.404
3.06784 3.37773 6.08945
4.80158 11.5113 31.399
8.80794 7.36641 13.3871
9.73447 8.09635 16.2888
9.31605 17.223 39.8642
24.9067 15.9523 20.877
6.811 13.306 19.8047
6.15053 2.14826 7.43487
10.6703 9.9035 22.4547
7.13764 9.7791 15.0744
4.68661 10.8428 24.5365
10.6342 11.9715 26.6651
12.3949 14.7266 39.0863
23.5601 22.2939 32.2505
6.75054 9.83358 35.0379
6.28431 16.3923 15.9572
7.17425 11.1445 22.1391
9.38432 5.26797 9.19125
5.08542 6.55653 13.0523
8.81193 10.2064 24.4991
6.52289 12.1847 24.3684
9.08956 11.6507 19.2349
6.86649 5.40648 7.72698
4.18719 12.5939 30.1905
8.99862 4.60748 11.8683
6.06045 5.68633 9.9292
1.72439 4.14568 9.01092
3.63512 9.29504 19.9918
14.7114 21.0932 44.7561
8.21067 20.318 29.4503
5.59755 1.8302 9.75159
11.245 7.32519 19.5378
8.06725 7.13725 9.32281
12.0173 14.7912 26.7467
7.59616 6.5014 9.17265
3.78612 10.8584 25.495
8.57875 7.02674 23.2694
7.73202 2.97869 6.2577
9.35945 6.46777 11.2045
9.64203 6.01664 16.8634
8.25782 8.187 9.05304
4.33387 7.86189 27.5856
4.40587 9.19301 15.4917
8.63204 5.70321 6.85383
7.81581 10.2492 33.4696
3.64397 6.77579 5.18318
3.54051 3.63547 12.412
6.86679 16.8827 28.8915
11.1587 20.4394 37.7621
10.0531 5.00109 16.3992
9.00888 7.98409 23.3286
12.2737 8.31308 26.5449
12.0394 8.83818 6.59499
10.1848 8.28675 15.0644
6.6167 4.76848 8.58938
3.19405 2.98307 9.47717
2.37035 3.83764 9.10868
7.60666 7.65985 15.0976
4.3192 9.06445 31.3784
6.52908 8.98764 12.5038
9.65654 9.06947 18.8306
7.66623 7.76963 14.2961
2.06861 1.46013 3.11919
3.50956 3.35634 9.25866
3.83727 8.81 17.1802
6.15793 0.979271 2.907
5.21232 8.43263 20.3408
7.78286 2.89022 5.56133
7.48249 1.76863 6.15324
10.8298 10.6465 18.6432
1.47766 3.4797 9.18482
6.1384 6.65021 28.6933
9.94048 7.00551 17.6605
16.1178 19.9999 36.9941
4.23305 11.578 24.1116
7.68046 5.02069 6.31026
3.50194 2.72894 10.6243
2.37207 2.59023 16.7729
16.7675 16.9222 24.9948
10.2043 12.2869 37.3428
2.38724 5.93835 12.7711
1.6513 4.45616 4.29928
2.97845 8.75126 23.1502
8.87508 6.36366 11.5802
9.4651 10.7381 21.3141
3.99184 2.19709 6.0571
2.79259 4.06887 14.075
5.13979 7.07335 17.0609
4.996 19.5032 44.2678
10.0072 4.75075 4.30201
6.85266 5.72925 11.9884
0.601156 6.3916 9.09182
4.11111 7.3228 27.4825
10.7819 5.31159 5.49455
4.70366 3.06692 16.3131
12.9161 13.5937 26.9573
2.614 5.16719 11.7861
2.83606 1.03139 9.79811
6.27749 12.391 22.5379
3.98963 2.05675 6.52827
3.17595 6.42158 18.4814
14.238 13.469 20.5066
3.12769 11.5851 22.4741
6.47874 2.76767 8.35237
8.70405 12.5505 27.9979
3.56456 3.07006 5.11989
3.55392 2.40163 11.5792
5.62128 13.9427 28.3279
6.35761 3.91709 15.0472
3.12982 14.2659 32.7562
8.67266 4.54773 16.9433
4.46321 5.85944 6.37876
4.17181 6.7354 20.9706
6.37832 3.3916 7.43594
6.08163 3.93146 13.5399
7.87677 6.03502 14.6698
4.43253 1.97677 4.25991
2.86638 3.83295 5.89934
1.63295 5.07469 14.0086
5.30644 4.5143 14.0725
6.98595 4.75133 12.1265
6.55172 8.68135 20.2798
6.80217 3.57613 12.3735
8.7397 4.99508 12.0882
8.39599 10.9721 23.0578
3.5492 4.44899 12.5384
6.39583 8.13883 14.8031
3.87278 4.52816 18.0828
7.84103 2.09917 12.6637
8.11166 5.38784 6.6374
3.42478 5.22748 19.2378
5.63871 7.5169 19.6696
7.98006 10.6598 14.7589
2.01528 3.75922 18.0444
7.05204 1.77822 6.5328
6.35963 3.28641 13.4348
4.85546 3.6216 11.5216
10.1867 9.13776 21.1084
9.0874 3.94163 12.0043
6.53208 4.2952 12.2413
9.49657 7.50459 6.00663
4.41069 7.13776 25.7683
6.52098 6.87483 16.9113
4.37729 6.88051 17.7004
9.70581 7.8349 16.9324
2.9921 3.68931 26.9672
5.91423 7.3338 3.12999
5.78227 6.56164 20.1696
5.54576 4.77735 7.3208
4.49089 13.6027 29.812
2.56757 3.42159 9.99813
7.45765 10.5883 17.263
5.21821 10.3057 23.6438
2.78332 5.60759 14.8215
6.81563 4.53831 22.8236
7.17313 3.40952 6.50524
7.47359 7.97379 15.8709
3.92919 5.19329 9.63419
4.44104 3.21785 14.489
9.27747 4.68888 12.9017
4.77181 1.78293 1.853
5.77275 5.21105 22.3793
4.5952 5.94853 15.8294
5.62028 9.17758 24.9468
5.35861 12.0682 16.3818
4.57134 5.67026 17.9405
7.77432 6.4643 6.80488
2.68364 2.23844 2.87474
6.96715 11.567 25.9824
7.24344 7.55709 27.3048
2.903 1.58116 5.20875
2.04388 3.06508 16.6203
1.87562 3.56862 7.68026
1.41458 2.90234 9.74799
4.83887 4.08229 7.48389
1.86329 6.7062 17.1432
3.31196 2.66405 7.37381
5.90286 3.14464 7.77448
3.42559 3.03602 7.1843
3.0499 2.95834 11.9149
7.86309 3.93482 7.12535
2.9795 2.1681 18.3034
3.81469 6.81104 9.31266
1.47597 3.7143 11.7225
2.33106 8.73025 24.3495
10.9003 7.67954 19.8531
5.22067 6.5314 17.7788
2.59797 3.66156 7.16233
5.37677 7.53215 23.184
5.01626 9.40689 16.7066
2.04402 6.84602 20.0509
6.63707 2.62149 6.25878
4.55304 3.83452 12.55
4.92813 5.59829 14.7061
5.23679 7.96833 25.8721
1.92925 6.77303 11.4294
3.99584 2.60395 15.6908
4.69963 3.86013 12.9787
8.97929 9.93783 33.2572
3.58481 6.44817 4.88535
3.56219 3.56344 5.91496
1.57164 4.32019 11.6416
4.69357 13.0453 47.685
11.5307 11.7205 36.5669
1.52988 3.09887 15.0348
3.70296 8.75407 23.0135
3.93358 3.21576 15.457
1.07149 11.7053 22.7129
6.86137 2.98089 5.27518
1.84141 2.09865 4.26283
1.77494 10.9472 28.9649
3.90943 10.1365 33.341
9.03786 2.85927 17.3191
10.9497 7.28066 13.3367
3.96047 2.50247 12.454
2.849 3.57309 11.7647
6.8251 12.7792 33.1636
7.33024 5.27873 18.7523
2.90695 4.10711 3.37668
5.27144 3.36928 6.02894
3.50933 4.85114 13.9848
2.14628 6.86112 17.4978
3.16683 8.91722 46.0961
7.35374 10.6714 7.41216
3.29805 7.37925 21.519
5.6668 6.72702 9.74857
1.89662 2.26844 10.9358
6.04395 9.63661 34.1465
7.42547 10.1207 22.7199
6.35052 4.62839 20.3641
6.24409 1.37735 4.61178
2.64091 2.37752 21.2801
9.27058 8.95912 14.114
2.51708 1.28222 11.6057
7.66035 16.9257 52.4191
8.52873 6.89201 9.20388
2.43211 5.0857 26.8942
3.88935 5.3259 10.5763
4.16785 6.78357 29.2753
3.00356 4.2166 9.25197
5.34319 1.68877 10.0676
1.91298 3.49692 7.84466
3.23207 5.01865 15.7333
4.27814 2.23399 3.24582
2.19318 6.38574 15.1624
5.1614 7.20321 15.1424
4.49111 8.8119 14.3848
2.71943 3.32568 14.1227
8.06716 10.0761 32.8938
4.93331 5.25014 19.1992
4.25292 3.96965 2.16613
5.5203 11.4379 41.7131
2.25704 6.93767 10.814
2.89035 3.12538 15.7932
6.61526 9.54529 18.9891
2.86565 3.07993 9.6419
1.20585 6.57839 28.2785
7.95871 8.4321 31.2954
9.51575 8.32119 23.4853
2.55064 1.65174 8.67595
4.77429 12.1364 16.9341
4.72259 5.14099 23.7747
3.62823 2.76418 12.661
5.09149 1.94469 9.85417
6.45893 5.1183 10.5714
1.80769 7.38399 14.8223
1.65663 4.17983 13.0187
4.76984 9.29019 34.7309
5.14062 7.83641 32.3484
6.87196 9.54977 18.2865
4.40268 0.338189 7.26095
4.49212 4.69758 9.70193
3.68956 2.77053 7.96378
5.20501 2.84526 19.1561
7.3881 5.19974 5.8151
4.62657 10.1878 19.7889
2.22935 2.62105 17.0232
6.08141 5.20284 9.18763
4.46876 5.54103 19.8699
7.09616 7.15647 24.2841
3.96111 1.57001 2.27137
2.25113 1.73565 9.98735
1.64047 3.80654 16.5989
6.96952 4.54316 12.3608
4.91176 1.97482 9.35181
5.33089 6.19061 26.4752
4.04302 8.36281 16.5254
3.70619 6.84782 11.8973
4.12505 1.59745 8.45392
2.18855 4.18739 18.1766
0.852756 5.2517 10.5492
4.56069 2.71983 20.7862
5.00335 5.48916 8.25172
3.54063 3.67954 8.25351
1.18033 3.95004 11.1528
3.24901 2.01891 2.07647
1.68857 3.45516 13.5915
5.06821 5.99103 24.8067
6.19199 4.2615 19.0974
6.52847 4.56334 6.70855
2.40425 1.2455 3.31637
3.87207 3.19139 16.7518
5.02081 7.64134 24.679
4.92646 1.65636 3.9209
3.15829 2.36107 12.0133
5.42038 4.86332 7.88239
5.22095 5.97657 14.6907
2.38971 1.26973 7.27137
2.81307 3.48639 19.2412
6.69428 4.84675 13.8436
5.93947 2.39884 3.61586
3.55551 5.83688 17.1303
3.14063 5.7542 19.1708
4.5537 2.80501 7.28035
3.98425 3.09838 10.1208
5.39347 1.90225 3.57872
4.97417 2.62144 6.42552
3.32998 4.81467 11.9615
2.68961 6.12316 27.3722
4.58145 4.74946 10.0122
2.0887 2.14438 7.79762
3.04176 3.51627 17.9572
5.55992 6.02634 17.7859
1.45479 6.28027 18.7317
3.7586 1.34377 15.8166
6.40183 7.0526 18.9964
2.923 2.82037 8.24588
5.26894 5.18974 19.4632
5.01497 4.26374 15.8764
2.8063 9.0923 20.7521
1.70437 2.15155 3.11071
2.90984 3.32494 16.4731
2.03185 2.32726 2.43946
3.6575 5.68218 18.7816
3.08781 3.51173 19.9005
4.64108 8.62768 14.3223
3.68158 2.61732 4.12183
3.41262 1.48174 6.87173
3.46822 3.61729 11.0357
2.80696 0.961041 4.37558
3.12285 4.24846 11.9491
1.55089 3.12766 8.02703
2.45275 8.20433 33.7571
7.7265 6.16425 24.9675
4.40346 2.99272 1.79861
2.17274 2.68159 5.69452
3.69862 2.37853 15.3286
3.28942 4.80174 14.6836
2.31643 3.89265 8.43724
2.61804 1.66924 15.8349
6.39862 13.7198 38.1656
4.70442 0.786454 11.3133
4.87771 19.0885 65.805
9.58075 7.64551 10.1772
2.7294 3.24483 7.99617
3.91778 3.20595 17.536
1.94377 3.23286 8.48923
1.29785 6.59135 22.3178
6.09648 4.56776 17.6977
5.20592 3.06145 16.077
2.72913 1.53151 12.3655
5.07939 3.14245 14.3526
2.3957 7.60969 12.5361
3.91253 3.71159 19.5424
3.26031 4.28985 6.06919
3.54624 8.97726 34.6786
4.6001 1.80125 0.930307
3.98094 3.94221 20.0009
2.05301 3.95205 17.4986
2.78215 3.91464 4.83686
3.25777 0.670057 10.3979
5.57153 2.21716 10.8283
6.60912 10.797 32.8247
4.43001 6.92027 16.4675
3.32889 3.66251 13.8189
1.65564 3.55152 16.7666
4.37092 6.9061 9.39811
2.04545 4.74503 16.2943
3.85855 8.0458 22.0219
2.31882 2.00907 18.0504
0.545458 5.20854 9.8659
4.1326 2.63839 12.3987
3.2303 1.54337 2.20826
2.39722 1.24256 5.35084
2.73072 5.56829 29.6719
4.24527 4.13809 10.7661
2.18161 1.32579 4.63533
1.44853 3.77112 1.97286
2.52429 4.33255 21.7571
2.01386 9.87852 11.9121
2.99489 2.01634 13.9805
5.10747 2.35917 3.87409
2.55461 2.66731 6.40497
3.69649 2.43586 4.54422
4.03367 5.59258 28.3115
4.70314 3.12536 2.57246
2.09136 5.08529 22.0861
4.00735 4.49349 9.58885
1.05323 2.82318 13.0638
4.33234 7.72766 23.3337
2.74831 4.21391 12.92
4.87587 3.20524 12.6323
2.3337 1.11758 7.91572
4.5434 7.82867 31.6044
3.32267 1.26988 5.28079
3.01724 6.78802 26.6747
6.021 1.38158 7.24629
3.83836 4.20118 16.9097
2.62824 1.82965 12.7227
3.49531 0.890324 13.3793
3.25938 4.2731 14.9505
2.51007 5.63895 6.20242
2.03188 5.4998 22.0753
3.99041 3.66444 19.2431
3.0146 6.96519 20.6915
7.4262 10.3712 22.4273
3.59051 1.57695 15.976
3.78721 10.3298 31.8104
2.76708 3.26619 15.2596
3.00468 2.58451 11.2545
0.719182 3.70972 10.8083
1.72974 1.73199 5.59881
3.33181 2.19455 9.70708
2.11674 4.44685 14.6517
5.63406 5.0134 16.7263
3.79191 8.55364 27.7428
4.69463 3.53585 9.68425
1.32284 2.3102 32.3046
4.3463 4.24593 13.298
1.21723 7.48651 12.6117
1.83379 2.78888 16.298
3.44948 8.92009 10.5619
1.66542 4.56197 18.706
5.4315 6.60716 28.1963
4.11344 0.471349 10.04
3.61834 2.01317 12.1077
4.35417 3.23953 11.658
3.6434 4.23624 13.5363
2.14205 5.47191 27.1458
2.66425 8.22864 36.344
4.72562 6.74826 17.9583
3.98063 2.3799 13.6628
2.74305 3.55602 10.7827
4.03039 2.53854 14.8205
3.97741 2.84636 5.67711
3.95839 10.1155 44.0516
5.88473 10.8064 25.1124
2.99291 3.4737 10.1789
1.80832 6.54236 13.7576
2.12157 4.74644 16.265
4.20533 1.7058 29.3433
8.62842 5.73066 8.72731
2.39899 1.03804 9.87864
5.29018 2.26727 12.0087
3.98105 6.03115 18.3686
5.8405 2.58867 17.2282
5.56227 3.98382 9.46219
4.4635 3.70938 15.3541
4.0328 5.40722 6.54076
2.24756 1.81842 7.11499
1.97006 3.23114 14.5312
3.61256 4.43613 12.2092
3.56319 4.64799 21.3425
6.86818 4.84001 10.9724
3.01967 2.09489 3.14514
2.84911 2.95859 7.82194
2.77874 1.74958 5.62919
1.92103 0.664952 3.4983
3.66248 3.27792 8.93064
3.74735 3.64515 7.48463
1.74135 2.2491 18.1106
1.59506 2.07038 14.9515
1.59071 2.69446 13.7788
3.17051 5.84006 17.0428
3.52417 3.74789 9.01026
2.23279 4.49614 11.8659
0.853577 2.94249 10.469
2.48482 2.18015 14.5864
4.2922 7.03708 26.4271
4.38411 2.6833 8.87887
1.82914 2.15559 10.0766
4.69251 5.06319 12.9602
2.34566 1.83471 9.15167
3.80886 2.18279 7.48594
2.74745 4.76261 13.6245
3.31895 2.60688 6.11658
2.29435 3.16774 17.7309
0.821205 3.77144 49.2308
6.63055 9.56547 6.93502
1.9469 4.64367 12.7031
4.58905 5.53615 37.0163
4.92692 10.7442 20.1768
2.60337 5.08921 12.1879
1.76912 3.99551 20.2613
3.22255 2.25649 32.3253
3.3498 7.38092 7.14788
2.07394 1.94365 9.38182
1.67372 1.84662 4.588
2.65713 2.20376 4.8062
3.00069 4.82709 16.6512
1.74452 5.06745 42.1504
3.90755 4.84059 10.5488
2.50119 4.88015 4.58282
2.50063 3.25804 23.2774
5.92663 4.20714 8.53989
1.06166 2.18473 11.1338
2.82071 1.31884 4.07723
3.12415 1.60176 5.40905
3.2419 5.02233 16.226
3.34073 4.68768 22.5463
2.16824 2.03487 29.6742
5.17837 10.3968 14.6132
3.33948 2.94904 13.7327
5.47917 5.12667 15.0496
5.53866 9.11428 32.9426
1.77299 4.19612 13.4273
0.786343 2.02946 14.2099
1.42392 2.1769 2.46208
1.82956 1.60325 10.0819
2.05283 5.46446 16.4887
5.08278 4.79412 25.6581
3.14396 2.26515 6.7654
4.15985 9.82446 33.1049
4.07988 3.94881 20.1045
1.23612 3.80338 8.71679
2.82853 2.57708 16.5961
1.94287 2.55308 13.7171
3.58328 3.49139 25.6914
2.7614 6.76307 18.9155
6.26159 3.51296 17.3009
3.11748 6.2919 17.699
3.12262 2.48734 7.51722
2.58715 5.69816 49.1379
2.03984 13.8581 20.9232
4.41511 3.52872 11.2945
4.85784 5.23924 4.47491
3.15154 6.53173 21.5884
2.14173 2.80694 12.0583
2.85469 2.98152 9.82335
3.14056 3.92401 17.1183
0.488189 1.57927 18.4639
1.62667 5.61975 13.7661
3.98071 2.17697 14.8785
2.44119 1.99772 7.7216
1.62829 3.00032 25.2554
2.92134 5.44725 4.85653
1.87532 1.20975 8.22209
1.61146 1.36066 10.8373
1.66409 2.8337 20.0994
3.05944 5.72782 6.61843
2.51454 1.87513 15.8663
2.60288 1.20023 4.80532
2.13561 4.54447 8.67431
3.01913 9.43194 40.3894
2.74986 3.20186 1.48436
2.13039 2.28828 14.295
4.23306 3.1234 10.3117
3.26231 4.13714 15.1726
3.12364 2.5823 14.6373
2.18077 5.37466 11.1102
2.88128 1.54358 3.68073
2.13297 0.877394 4.08871
3.07117 2.6128 15.1876
4.22887 1.22893 22.851
4.54635 5.58717 8.03282
1.70753 1.16836 15.3979
3.71954 4.40601 11.9352
1.1007 2.97039 21.3122
5.12002 4.89186 3.41938
2.38946 4.99121 18.694
4.0566 1.76018 18.6081
3.58996 7.03627 13.0565
2.6234 9.94864 30.8964
2.97635 1.48968 9.14805
1.97276 1.9235 9.40639
3.1082 5.62897 11.9328
3.39836 2.226 13.7153
1.18929 2.58237 10.9498
3.67391 2.80671 16.0661
3.58325 3.25912 18.1824
2.97354 5.56805 16.411
0.407104 6.2479 30.3332
3.52644 2.88178 3.36616
3.20052 5.14308 18.5674
1.09882 1.0492 13.7521
2.43153 6.23087 14.5396
3.07084 0.58775 4.73098
1.53674 1.67717 18.6465
1.84035 3.89333 5.07144
3.14129 3.08137 7.59709
3.02855 3.06013 16.243
4.96606 4.23479 14.9791
1.52456 2.9206 7.83958
1.14586 2.13327 9.04225
2.5265 1.38462 17.183
2.72478 2.6847 19.5258
4.46768 9.5356 45.693
1.55561 7.26181 10.1431
1.61271 3.13416 16.2245
1.78993 5.86842 24.5233
4.64431 6.08322 3.86139
1.52544 8.21564 35.588
4.57751 7.78955 20.4264
3.6032 7.17898 26.9594
5.61135 0.975917 13.8206
3.24333 2.26945 7.7372
2.45519 1.8682 16.4234
3.70639 5.06231 16.2965
3.1066 4.08802 5.95677
1.53264 4.32866 20.0306
1.75933 2.44171 27.0207
3.67758 3.2194 4.6425
3.06029 0.798996 8.80345
2.84042 3.10136 12.4934
3.07538 3.85722 9.14931
1.75074 2.59259 3.84441
2.80763 2.55428 30.5937
3.16287 5.67493 11.2274
3.68916 7.11302 48.2466
6.76133 8.1546 9.56994
1.99968 3.22968 8.97164
1.8895 1.5816 15.7203
3.42756 4.84032 10.1606
1.18964 2.05597 18.8799
0.978249 7.05763 22.9931
5.58439 5.54895 18.7446
1.24192 2.73187 7.2713
3.06023 3.93934 11.2783
2.14191 2.10327 3.61774
1.88143 2.89905 10.1585
3.1234 2.5598 9.84142
3.95246 2.02613 11.7027
3.62453 8.18637 21.521
2.25074 0.780008 5.55939
1.67685 3.57906 14.0829
2.0885 2.88484 19.1467
2.86924 2.41468 14.1866
4.18352 3.27579 4.17675
1.95506 1.6901 15.101
1.47449 1.08032 7.68693
0.947677 1.74113 10.6272
2.40995 8.87663 34.8711
3.94662 1.86224 28.4166
3.72552 4.33015 4.88975
2.72111 5.3386 14.6636
3.358 3.37893 9.09317
4.1169 3.29876 27.8617
2.58371 6.6543 7.9453
3.12849 5.20439 24.3105
4.09384 9.42613 28.1698
3.70695 0.746832 9.86196
2.28831 3.70027 12.5875
2.6673 1.4466 4.23742
1.7014 1.94513 6.0022
2.72133 1.98539 8.62444
4.06895 4.73426 21.2663
1.69878 2.83831 6.75573
1.51531 3.67853 16.168
2.3734 7.1468 22.3574
4.29224 3.2517 14.8424
2.46404 3.93881 8.84408
4.00209 3.55877 20.2746
5.24454 1.26862 15.2498
3.74212 3.5076 13.0504
3.55498 3.28611 9.79389
1.8776 4.04368 16.5631
3.10745 4.89933 32.8209
5.4548 4.93375 3.34619
1.53697 3.16938 3.77449
2.71478 4.55279 24.6097
4.73729 2.94737 18.0162
3.13902 1.87719 17.8798
3.00941 3.6366 28.8026
3.21532 8.20553 11.2308
2.74054 3.15464 4.60818
0.920451 2.19306 4.79791
1.41375 5.803 17.6877
4.92185 1.39158 13.3548
3.76249 5.77498 33.3841
6.84834 6.29148 10.4009
3.06975 2.00673 20.9614
3.36133 4.34871 11.2331
3.31056 5.15757 17.5333
3.60422 5.34635 13.1603
1.00013 0.703231 5.47585
2.81746 4.00237 49.36
4.3016 9.50866 28.5615
5.4025 7.43371 12.3255
1.40212 6.62442 23.4854
2.23335 3.97428 18.0488
3.56111 2.76529 14.0731
2.31671 4.58668 11.7259
3.55115 2.12599 6.07711
1.87395 2.6863 15.069
2.6038 4.13685 25.8304
0.669819 3.10489 2.40491
2.06193 1.37626 6.60024
2.20823 1.45396 3.00315
2.93744 2.31823 19.5343
1.1581 3.06561 5.59033
1.88472 1.59565 15.0742
4.14129 4.08892 11.5001
2.77427 5.6087 13.3183
1.50313 1.00255 14.6089
1.90661 2.22217 10.8397
1.85079 1.72114 14.2831
3.31145 4.4204 9.59468
3.14721 3.66488 11.8748
2.62401 1.74952 12.1235
3.26055 2.68594 11.1928
2.30163 0.75568 20.1325
4.09605 9.38561 19.1219
1.18663 2.51059 17.2326
4.07568 3.64927 26.9062
2.66217 8.50561 19.5558
2.7537 3.10716 9.60378
3.00172 3.1134 9.75036
2.28375 4.57139 13.8456
1.9209 0.700763 12.455
1.35161 4.58064 15.522
2.75656 0.933029 20.0732
3.37157 5.37999 5.71347
2.60009 4.73471 11.6525
1.51373 3.96334 16.8647
3.44911 1.62303 17.7792
4.91493 5.46817 18.8988
3.32784 7.16321 18.2968
2.55604 4.89371 21.882
4.11841 2.10579 14.8982
3.71408 3.3659 6.6707
2.22966 1.75734 12.6014
1.41364 5.73665 14.1234
2.2505 1.2077 3.14086
2.35012 2.9339 9.04475
2.46341 4.78435 23.9355
2.47632 3.41828 9.68566
2.17417 3.38678 14.853
3.57331 4.11614 28.9674
5.14927 0 0