# pn-170911/RbII-15-USN3-1280-1959.psd
# Power spectrum* (dif=0,1,2) (really just |FT|^2)
# NOTE: only the first half! (symmetric)
# weeks: 1280-1959
# 20 clock-days, 95 excluded
# PSD: 1441
251637 3.92524 0.00315689
6.88981e+06 152.067 0.00219668
4.22157e+06 67.4523 0.00179568
2.16274e+06 44.463 0.00225362
869028 22.026 0.0023392
589004 13.0271 0.00238765
332980 5.57295 0.00172291
243514 4.9923 0.0024744
156605 6.55706 0.00255556
127065 3.64605 0.00205019
99797.9 3.62465 0.00229904
77680.5 3.77179 0.002965
69150.4 3.53881 0.0025466
63129.8 3.74359 0.00260998
55883.8 2.30756 0.00325969
45793.7 1.92356 0.00296883
40472.3 2.85982 0.00372981
34948 2.72206 0.00450623
29811.3 1.81978 0.0040181
26606 1.66206 0.00360965
27676.4 2.04071 0.00318828
24360.6 1.71863 0.0048361
22193.7 1.61158 0.0039653
19385.4 1.72372 0.0050026
16688.5 1.8023 0.00562121
15991.6 1.48463 0.00698719
15393.9 1.96326 0.00609192
13392.2 1.62386 0.00406497
12591 1.85672 0.00688598
11351.6 2.01932 0.00960995
10450.8 2.51814 0.0110569
10677.4 1.65111 0.00855603
9798.73 1.47897 0.00881862
8906.17 1.58449 0.00812875
8476.78 1.55087 0.00885032
8122.1 1.96943 0.0124001
8148.29 1.83362 0.0137623
6768.79 0.962531 0.00887537
7267.16 1.31031 0.00637119
6255.2 1.75622 0.0114978
6304.51 1.9124 0.0163758
6657.52 1.32556 0.0103344
5162.64 2.06996 0.0176105
5185.22 1.4108 0.0142605
5322.03 1.34342 0.0119884
5284.13 1.40208 0.0134259
4917.71 2.20452 0.020843
4309.78 1.58623 0.0180203
4738.65 0.872572 0.00969325
4475.7 1.45697 0.0176248
3773.35 1.35391 0.0188131
4423.86 1.91859 0.0213013
3828.5 1.64974 0.0232906
3751.65 1.56161 0.0224456
3488.54 1.37145 0.0178561
3114.58 1.63965 0.0277925
3142.4 1.57371 0.0233296
3249.94 1.50258 0.022998
3056.79 1.94625 0.032725
3255.09 1.41707 0.0251616
2920.65 1.35008 0.0254136
2739.21 1.83112 0.0305767
2759.13 1.61936 0.0318173
2544.8 1.11756 0.020847
2690.8 1.25497 0.0262503
2737.31 1.51305 0.0342573
2296.59 1.27603 0.0255372
2214.04 0.868546 0.021459
2060.96 1.31144 0.0314602
2048.51 1.44726 0.0341549
2190.57 1.50695 0.0330907
1986.14 1.75439 0.0435908
1973.76 1.40956 0.033678
2041.94 1.61274 0.042794
1806.84 1.12456 0.0320072
1738.26 1.41185 0.0377251
1774.5 1.09978 0.0341466
1748.71 1.14833 0.03079
1745.59 1.25935 0.0359017
1564.97 1.77183 0.0508201
1745.29 2.04965 0.0593385
1614.68 1.74223 0.0542635
1597.19 2.1955 0.0712996
1468.82 0.888865 0.033161
1467.53 0.941977 0.0306286
1408.6 0.810837 0.0319768
1531.03 1.60145 0.0596111
1274.58 1.36199 0.0518639
1346.72 1.40118 0.0525768
1302.96 1.24723 0.0485464
1166.84 1.96099 0.0824493
1232.95 0.860217 0.0341022
1152.93 2.10634 0.0817814
1213.64 1.47297 0.062728
1166.8 1.62544 0.0692095
991.913 1.67795 0.071743
1149.19 1.70754 0.0793969
1118.19 1.7883 0.080814
929.082 1.88882 0.0846863
1147.61 1.29935 0.0603127
972.432 1.4285 0.0773575
1057.95 1.34486 0.064466
949.693 1.73619 0.0824166
1026.43 2.05141 0.0991887
975.582 1.55574 0.0807425
891.526 1.57994 0.079117
988.958 1.41186 0.0749693
962.432 1.56451 0.0903225
890.991 1.60677 0.0975016
854.298 1.3947 0.0793838
936.989 1.61501 0.0933011
798.608 1.62907 0.0979712
892.252 1.44475 0.0930712
767.825 1.34729 0.0838087
743.112 1.43159 0.0935576
782.225 1.53389 0.107442
680.877 1.17936 0.0743801
753.602 1.00138 0.0695457
783.065 1.40848 0.0925699
694.247 1.44089 0.100988
717.119 1.51111 0.10552
666.009 1.12272 0.0803594
739.551 1.35172 0.0930994
696.01 1.08855 0.0860737
713.942 1.41276 0.0961864
716.273 1.79995 0.133762
716.907 1.33993 0.10547
662.277 2.76988 0.207074
691.377 1.64813 0.133407
630.043 1.10906 0.0901483
626.422 1.54353 0.12747
591.951 1.38842 0.102961
522.299 1.18266 0.106555
628.294 2.32807 0.193412
587.317 1.70143 0.143728
536.228 1.40656 0.124576
634.057 1.87939 0.167246
528.1 1.30751 0.128261
521.205 1.44956 0.132642
520.686 1.38395 0.120502
516.01 1.45346 0.145381
523.372 0.976532 0.0919128
505.179 1.09855 0.110381
470.845 1.55573 0.148824
538.418 1.30313 0.136775
431.249 1.25637 0.134296
485.525 1.15373 0.113274
496.9 1.19173 0.119208
464.472 2.21041 0.22629
494.524 1.69576 0.186704
468.762 1.39458 0.143606
428.922 1.54727 0.161988
484.289 1.7224 0.185777
430.165 1.14915 0.131599
424.564 0.78854 0.0906954
430.537 1.5736 0.184198
372.489 0.731918 0.0921343
453.381 1.27668 0.137747
442.44 1.11598 0.134635
409.882 1.83831 0.218754
434.6 1.87924 0.235336
399.584 1.99231 0.232673
358.174 1.11664 0.146804
460.207 1.59651 0.211057
346.934 1.4096 0.173435
420.004 1.38081 0.168115
410.351 1.59516 0.204768
339.95 0.987794 0.139675
390.644 1.31367 0.184793
308.3 1.17032 0.151113
382.967 1.93311 0.274199
369.975 0.910244 0.119756
305.558 1.26523 0.166918
387.36 1.17225 0.177546
365.44 1.65427 0.230152
311.951 1.11123 0.165051
376.345 2.68379 0.388395
328.968 1.45132 0.233401
348.636 1.12171 0.171685
338.252 1.44698 0.216386
304.139 1.14047 0.168548
344.802 1.53252 0.257538
309.333 2.03903 0.307631
325.164 0.958149 0.147636
345.055 1.41339 0.236232
305.953 1.07534 0.181084
307.978 1.65561 0.253181
338.91 1.51721 0.244241
268.829 1.25397 0.203567
312.392 1.24797 0.210243
289.44 1.17478 0.209343
250.016 1.66041 0.297294
333.138 1.00075 0.157711
314.069 1.23937 0.22526
271.709 0.945125 0.165193
292.219 0.977667 0.186674
245.549 1.281 0.237198
302.675 1.19464 0.21752
298.129 1.5951 0.308054
254.412 1.42874 0.244726
296.586 1.63724 0.315321
249.39 1.07105 0.198725
284.419 1.24891 0.232337
290.557 1.58464 0.300192
255.333 1.47255 0.312165
267.038 1.11482 0.207348
246.438 1.11173 0.214756
231.457 1.17496 0.264948
289.968 2.27588 0.461936
218.518 1.27711 0.223227
230.034 1.01516 0.195297
233.727 1.80811 0.381512
217.479 1.52595 0.317302
233.736 1.05451 0.213694
250.577 1.22781 0.271927
216.787 1.51709 0.334054
259.059 0.597322 0.115177
223.353 1.22229 0.290836
219.519 1.28936 0.27526
266.78 1.36686 0.29628
191.217 1.17151 0.281724
244.733 1.48048 0.329182
225.318 1.50197 0.34899
207.211 1.20862 0.284615
220.184 0.878376 0.198507
210.92 1.45797 0.326201
198.944 1.50082 0.397349
235.008 1.08089 0.274064
215.763 1.42278 0.315182
216.246 1.38631 0.325889
205.739 1.49042 0.368592
182.786 1.86257 0.478253
218.669 0.923391 0.253753
204.86 1.37523 0.333205
208.695 1.32784 0.356498
198.75 1.5754 0.379481
177.726 0.835769 0.232944
205.206 1.4574 0.353721
185.236 2.2197 0.585385
176.293 1.7223 0.462957
204.372 1.56577 0.420501
168.557 1.52983 0.428799
200.759 1.36208 0.349264
195.697 1.39287 0.386658
171.906 1.46741 0.387293
198.803 1.23301 0.312714
163.924 0.883685 0.263039
179.211 1.05517 0.263954
203.838 1.19666 0.352947
167.122 1.371 0.435899
184.785 1.23422 0.345991
182.788 1.47819 0.402201
129.542 2.61528 0.781869
198.706 1.15175 0.356001
150.994 1.95009 0.603245
151.977 1.20597 0.342821
180.775 1.709 0.492662
154.636 1.00157 0.304825
156.013 1.27277 0.408764
166.24 2.0207 0.589563
144.267 1.53937 0.506299
177.949 1.47345 0.424368
159.82 1.03129 0.332986
148.537 1.21611 0.407669
185.185 1.45159 0.462825
140.168 1.3407 0.437181
162.096 1.32146 0.497295
161.068 1.34301 0.389076
150.717 0.764955 0.266908
158.615 1.46457 0.508365
144.944 1.8476 0.629211
162.227 1.28505 0.44636
164.001 1.67713 0.60441
119.912 1.77196 0.617583
161.857 1.70563 0.537485
145.949 1.92604 0.698201
126.24 1.28613 0.479269
153.853 1.55614 0.529222
132.137 1.26351 0.510436
132.683 1.33803 0.448379
158.604 1.00808 0.337323
119.396 1.18968 0.427953
142.408 0.84483 0.330133
139.344 1.72484 0.641986
131.908 1.53282 0.571405
151.092 1.57629 0.581393
120.245 1.80373 0.677571
124.356 1.57942 0.637864
142.581 1.99089 0.748675
140.599 1.76638 0.624006
145.709 1.09551 0.440838
126.589 1.18604 0.452803
116.843 1.78231 0.756199
139.137 1.07691 0.408145
129.975 1.46908 0.534605
134.379 1.94914 0.77663
145.789 2.15823 0.811851
113.876 1.6422 0.738279
124.783 1.8085 0.695148
124.489 1.12217 0.46944
120.855 1.57313 0.655153
126.664 1.54418 0.618116
108.778 1.55951 0.645547
107.586 1.28438 0.545145
120.235 1.69794 0.66448
104.619 1.94133 0.805497
124.679 1.59584 0.712393
115.817 1.3634 0.631422
105.23 1.36868 0.5432
139.251 1.36673 0.59306
106.109 1.15992 0.535344
112.24 1.67005 0.713519
124.114 1.40564 0.640389
105.02 1.4917 0.647359
117.079 2.02186 0.953173
108.748 1.84547 0.780135
97.6293 1.36192 0.660021
130.591 1.32397 0.58999
106.524 1.55454 0.822757
105.632 1.36123 0.554122
113.929 0.968012 0.46787
98.1022 1.35049 0.624279
113.838 1.13256 0.562652
101.972 1.31569 0.617764
103.211 1.78521 0.90759
115.843 0.997153 0.479836
96.2526 1.36682 0.668189
101.119 0.945087 0.505438
106.829 1.2742 0.6382
90.23 1.49732 0.739914
112.78 1.51171 0.699795
90.8389 1.11621 0.543378
90.9452 1.1644 0.539138
115.265 1.19743 0.640258
88.8679 0.985465 0.507222
102.039 1.32228 0.729246
88.1752 1.24804 0.591197
76.8039 1.23997 0.650496
117.714 2.10654 1.157
91.6074 1.49705 0.782951
96.3583 0.904445 0.514234
97.4267 1.20078 0.633594
84.5372 1.00727 0.527598
96.3826 1.87846 0.927058
95.8586 1.38796 0.743796
83.6232 1.29824 0.821935
99.7133 1.26872 0.678999
93.5916 1.47277 0.769881
85.4715 1.5461 0.861151
100.624 1.6945 0.910722
86.2446 1.97205 1.15594
93.8612 1.49893 0.784896
100.787 1.972 1.12306
82.5474 1.88961 1.05155
97.0945 1.37815 0.776719
89.6971 1.39755 0.858818
85.2299 1.44311 0.847662
104.175 0.89746 0.52513
70.8917 1.11138 0.615104
94.8428 1.12621 0.667632
95.0577 1.4871 0.874605
82.8119 1.65174 0.908255
95.5049 1.7589 1.00146
77.5087 1.54934 0.92649
88.0733 1.26144 0.787982
98.938 1.4765 0.970717
80.6482 1.62393 1.08319
82.3787 1.46904 0.769958
82.8674 1.80358 1.10776
76.3469 1.37714 0.90716
94.7077 0.910538 0.597978
77.7178 1.71801 0.968705
78.4244 1.03772 0.7967
96.2178 1.00025 0.676114
63.5094 0.962695 0.618944
84.9317 1.21274 0.774947
83.145 1.66823 1.04786
70.1227 1.72247 1.05575
92.2503 1.5114 0.997626
81.0918 1.48823 1.08248
73.9692 1.76547 0.933809
88.2563 1.19765 0.905389
64.8539 1.31344 0.855106
78.1933 1.52777 1.12945
83.5314 1.09306 0.661138
70.9371 1.66314 1.13244
89.9769 1.1918 0.746742
71.5661 1.38756 1.04619
77.3403 1.28586 0.800283
79.177 1.26175 0.916805
67.3172 1.04985 0.639017
80.2302 1.72945 1.2466
81.4698 1.44308 0.939711
72.5171 1.59074 1.1808
82.2146 2.04132 1.29902
68.7864 0.483095 0.361934
70.797 1.47924 1.13206
80.1328 1.52001 0.919095
73.5283 1.90609 1.33666
86.5755 2.5753 1.82946
72.2106 1.38588 1.01819
70.0945 0.994378 0.654048
84.27 1.26912 0.964694
63.9465 1.3209 0.98249
71.8577 0.930604 0.669
83.6643 0.999925 0.878159
60.5737 1.2555 0.921711
82.3079 1.81404 1.24233
65.9889 1.57828 1.41571
66.8123 1.41169 0.879058
90.9576 1.84067 1.41905
64.8776 1.18403 0.733506
65.8998 1.75547 1.43372
82.6134 1.57654 1.40525
63.2627 1.63731 1.15089
82.4964 1.48157 1.03448
75.2987 1.61677 1.35456
69.102 1.55423 1.20769
88.1675 2.39467 1.80208
64.3307 1.4475 0.962048
70.899 1.50685 1.1837
74.6403 1.27728 1.07545
60.8702 2.04193 1.57665
77.4793 1.96881 1.67871
63.7576 1.72068 1.302
64.9942 1.65594 1.22612
73.1736 2.0134 1.77361
56.2696 1.24205 1.01064
73.7398 1.85577 1.31457
76.0174 1.38588 1.19347
59.0486 1.61666 1.31411
69.6819 1.33504 1.21477
66.2655 1.60872 1.10272
61.1724 1.58793 1.23565
67.5089 1.53189 1.35849
61.7273 1.22392 1.11639
62.6584 1.77103 1.23354
62.6778 1.10358 1.02767
59.4481 1.25457 1.06071
62.5759 1.47027 1.08138
63.1875 1.54218 1.4459
62.3999 1.41343 1.52428
78.8214 1.49869 1.0963
61.2341 1.69918 1.35267
66.959 1.51205 1.43516
59.73 1.73639 1.48711
53.9576 1.07185 1.03007
72.3979 1.79212 1.33123
60.4652 1.65407 1.41879
57.5744 1.16473 1.10755
69.5858 2.11445 2.08524
53.6217 1.57541 1.25619
65.8202 1.98796 1.75195
74.031 1.75257 1.411
51.3405 1.48628 1.66323
67.3197 1.21715 1.01073
52.874 1.43156 1.33009
64.2092 1.84224 1.45581
62.7988 1.59152 1.66679
54.6447 1.45203 1.40853
53.199 1.75637 1.51607
64.2234 1.3872 1.27272
50.8507 1.68988 1.54483
68.582 1.8047 1.74679
51.0806 1.65607 1.47323
54.0292 1.46782 1.24827
57.9577 1.80631 1.71106
55.3364 1.79334 1.98201
60.6397 1.71488 1.39196
61.062 1.57185 1.71911
52.6179 1.66792 1.57443
62.7343 2.19587 2.28102
51.3336 1.9696 1.67193
49.8269 2.18812 2.24294
63.8985 1.3705 1.18835
44.2964 1.68857 1.4332
58.7087 1.77714 1.89769
62.2157 1.5656 1.61812
51.0912 1.32442 1.46624
65.7211 2.08333 1.95625
51.035 1.61721 1.70473
56.6555 1.82773 1.60805
59.5843 1.79878 1.87521
45.3553 1.62329 1.94781
56.395 1.60026 1.58017
56.4179 1.84961 2.14092
41.2825 1.91637 1.71823
62.717 0.982034 0.836536
49.0856 1.50048 1.63628
46.585 1.63082 1.71007
61.0857 1.86895 2.16829
47.0717 1.28564 1.3844
53.6296 1.69135 1.73549
54.257 1.64697 1.6237
42.9817 1.60207 1.84611
64.114 0.859762 0.858727
44.787 2.45771 2.40205
50.7126 1.42325 1.83442
57.4756 1.81219 1.79927
43.9426 1.42406 1.34874
55.6938 1.38758 1.7781
50.8168 2.08714 2.32876
45.81 1.44675 1.25213
59.8948 1.51626 1.76652
45.8706 1.48767 1.6306
49.8106 1.6616 1.86369
55.7514 1.74328 1.85866
41.7416 1.35396 1.53395
52.6598 1.22168 1.38795
49.4658 1.29088 1.26115
45.4519 1.55574 1.66745
67.2464 2.70854 3.1997
40.229 1.81608 1.81777
53.0395 1.98429 2.30591
47.039 1.84454 1.86591
39.1743 1.89107 2.38619
54.4501 1.81042 2.02878
44.193 1.49603 1.60355
42.6129 1.57161 1.87738
53.6158 1.81831 2.3327
39.2575 2.52526 3.12602
47.103 1.99865 2.33817
48.9951 1.80346 2.06498
34.4913 1.54956 1.5674
50.2374 1.06074 1.19339
45.9217 1.35061 1.55208
43.4199 1.23398 1.46161
53.2097 1.65764 1.8741
35.8589 1.56884 2.21286
40.9501 1.47951 1.60666
51.1966 1.36835 1.55731
36.0114 1.59383 2.09843
44.0881 1.72894 1.55467
43.8255 1.80859 2.15041
39.5899 1.7988 2.27404
49.4783 2.25909 3.22803
38.4736 1.834 1.76571
44.4548 2.04925 2.48329
46.0196 1.59702 2.03682
34.1645 1.73941 2.07062
44.9989 1.39045 1.7199
38.809 2.24073 3.08275
35.3775 1.4823 1.83002
48.6485 1.25613 1.68073
41.066 2.26995 2.41108
42.6053 1.69328 2.34449
46.3463 1.49093 2.07474
31.8025 1.52821 1.91774
48.4315 1.8874 1.90978
35.5508 1.99176 2.40218
41.0487 1.86808 2.37708
44.4376 2.04991 2.71957
33.5731 1.88643 2.34855
42.5447 1.84739 2.15317
42.8222 1.15175 1.84317
33.5114 1.7171 2.29547
43.4718 1.47549 1.6308
37.9585 1.75911 2.35359
36.514 0.976095 1.6489
42.305 1.43714 1.61528
34.6092 1.41057 1.84174
46.0981 1.67122 2.20591
39.579 1.67157 2.56005
30.3699 1.79632 1.97569
46.0883 1.34237 2.24891
38.4291 2.32957 2.74668
37.2511 1.14381 1.32065
46.9148 1.69927 2.61983
30.2686 1.03137 1.66867
42.3651 1.6987 2.40845
37.9493 1.4531 1.79513
31.0663 1.5152 1.74435
43.5773 2.08065 2.93139
33.8992 2.17587 2.94986
35.4882 1.53994 2.83961
43.0457 2.58456 3.0734
30.2435 2.14875 3.45783
47.1034 3.13 3.61342
40.3017 2.25198 2.79464
32.2947 2.03748 3.21858
43.9353 1.75054 2.331
33.3195 2.04894 2.77881
32.0793 2.38862 3.56853
45.3646 2.29217 3.11197
30.2605 1.27863 2.04081
38.8628 1.74913 2.52008
43.2885 2.61698 3.477
31.9535 2.74254 4.1018
45.7227 1.95807 2.59828
34.1048 1.89372 2.75427
37.3997 1.58069 2.5162
39.4746 2.12734 2.85542
30.2886 1.62224 2.50115
45.753 2.4759 3.16062
37.3268 1.6858 2.79691
29.5374 1.29103 2.07352
42.2802 1.90143 2.76807
33.4397 1.17407 1.83848
34.3922 1.75009 2.64966
38.7921 1.60289 2.47313
29.5427 1.83855 3.17163
39.4455 2.39505 3.02323
35.1062 1.69956 2.75767
28.922 2.40234 3.77936
44.7767 1.87403 2.28964
31.0281 1.60268 2.35005
35.325 1.60003 2.66248
41.2537 1.31218 2.00103
29.9619 1.82391 2.68223
42.4322 1.30539 2.08899
34.2037 1.72968 2.36611
33.2978 1.74541 2.57185
42.8696 1.34333 2.27963
34.1702 2.17025 3.18348
37.5649 1.07257 1.73748
42.12 1.94782 3.18256
29.0253 1.44297 2.02159
43.3283 1.52772 3.08609
33.4085 1.92709 2.76765
30.9013 1.87778 2.73771
45.8064 1.47251 2.08719
33.0311 1.8219 3.19759
35.6277 1.84552 3.25785
39.6915 1.87441 2.80554
28.9896 1.09248 1.7027
44.5081 2.04653 2.85685
32.2065 1.45848 2.36201
30.645 0.985327 2.39492
41.984 1.19582 1.47032
27.63 1.59528 2.4485
36.7185 2.39546 3.64307
35.637 1.44318 2.20209
28.5842 2.11726 3.03663
38.4915 2.18649 3.60923
34.127 1.3792 2.48501
33.326 1.95126 3.27877
39.7349 2.06636 3.62507
29.37 2.30656 3.16594
32.5072 1.63688 3.19362
43.5977 2.1472 3.43729
28.467 1.24085 1.73611
36.7898 1.92589 3.06499
33.0994 2.1143 3.90999
33.7159 2.04738 3.42554
38.9762 1.70578 2.84613
27.6288 1.81688 3.08201
33.0464 1.70463 2.80098
34.5215 2.57771 4.35766
28.4015 1.09407 1.71503
38.5228 1.91885 3.86585
32.2886 1.36551 1.93523
33.3605 1.76961 2.53525
39.2903 1.46232 2.6764
25.6452 1.08501 1.97459
38.8798 1.76763 2.4374
36.0608 1.13009 1.79176
30.9372 1.334 2.55774
32.2833 2.47515 4.5407
30.7701 1.37303 2.7243
31.083 1.84579 3.00697
39.9269 1.89008 3.54739
31.6082 2.0592 3.38503
35.6469 2.0288 3.54574
31.8376 1.91733 2.56725
29.3078 1.11541 2.4196
40.1466 1.48601 2.56234
30.027 1.37981 2.41883
27.029 1.16553 2.50179
35.7849 1.68806 2.99711
26.5596 1.87231 3.74595
36.3942 0.925061 0.934958
35.089 1.54072 3.31694
27.7806 1.48262 3.46236
38.0359 1.83641 2.67488
27.6774 1.65938 3.08012
27.2945 1.11833 1.74746
38.9255 1.4954 2.52477
28.4741 2.56383 5.94201
36.0265 2.7049 4.40952
33.9805 1.98095 3.54525
27.2101 2.39946 4.22523
38.4905 1.64747 2.7735
29.6685 1.50817 2.41544
29.9462 1.68472 3.79823
40.9386 2.26863 3.95342
24.3974 1.8203 3.9293
37.9366 1.94114 3.07499
30.9847 1.60598 2.9489
26.2239 1.57344 2.59404
36.6683 1.788 3.68471
27.5823 2.66552 5.07717
27.4585 2.04904 3.4205
35.41 1.73195 3.21661
25.8843 1.44326 2.80868
32.4243 1.61828 3.3858
30.8087 2.15911 4.91818
22.5322 1.49181 2.8036
36.7324 2.20633 4.30565
24.3301 2.2306 3.85918
29.4592 1.50589 2.53083
35.1663 1.92995 3.64592
24.8963 1.23066 2.47096
31.5782 2.14742 4.34855
29.7231 1.67088 3.12726
24.7133 1.64159 2.94343
34.2591 1.98233 3.14862
25.6196 0.972939 2.1401
32.7863 1.62938 2.99295
31.6583 1.11785 2.3746
24.4223 2.06027 4.46334
33.0653 2.18441 4.0601
31.883 1.44768 3.16474
26.49 1.70604 2.81832
35.5686 2.33211 4.61218
25.0655 1.6935 2.74426
28.7555 2.09356 4.34272
33.5738 1.59803 2.74175
22.7486 1.65683 3.74054
33.655 2.00079 4.4162
29.2368 1.4866 3.08347
23.3211 1.40271 3.26497
33.6407 1.82009 3.11771
25.4258 1.72674 3.74002
28.0619 1.94614 2.71793
30.8935 1.60225 3.57351
22.2873 1.59293 3.55703
29.9601 2.0187 4.37257
29.9514 1.62652 3.96986
20.8816 2.13184 3.61144
35.581 1.9964 3.89275
21.4222 1.35469 2.92544
27.9023 1.96795 4.78455
31.1378 1.39113 2.5989
21.0465 2.30843 5.29584
33.7293 2.36668 4.55187
25.3568 1.73178 3.96743
24.7685 2.11635 3.74758
34.7561 2.31958 4.31438
22.5325 2.51645 4.99169
29.3297 2.00806 4.49301
29.1695 1.84457 4.51005
19.1905 2.5866 4.58142
31.837 1.51104 3.2038
26.3898 1.76861 4.47736
23.0442 1.78552 3.97924
36.3985 2.41869 4.18994
18.7127 1.2942 2.71797
28.0925 2.08248 3.96988
31.0474 1.5673 3.64113
20.0153 1.98514 3.70782
29.4403 1.86558 4.32557
25.4687 1.80545 4.21526
21.8957 1.71941 3.11362
31.7797 2.00554 3.77419
19.6611 2.06548 4.59398
24.9218 2.18851 4.51394
28.4239 1.98652 4.25906
21.0835 1.66058 3.89338
28.7533 1.57855 2.85613
24.0782 1.73848 3.76521
20.2648 1.32699 3.34635
28.4728 2.27715 5.5875
20.3788 2.11532 3.99565
27.2965 2.31944 5.07501
29.5848 2.0073 5.46393
21.0238 1.54219 2.73455
28.8807 1.5195 2.63855
24.858 2.01686 4.21262
21.6953 1.76451 3.74625
29.7442 1.58322 4.55697
20.5025 1.82319 4.22004
24.7384 1.71818 3.30413
24.3608 1.72262 3.7417
20.8717 2.73856 7.88724
30.9045 3.76749 7.29029
19.9102 2.0049 4.2493
21.6772 1.79834 3.95405
31.3411 2.04476 4.64176
19.1245 1.35312 3.97442
30.9101 1.8395 3.43083
25.7195 1.90577 4.66996
18.3421 1.70839 3.91345
29.3481 2.23152 4.9603
22.5934 1.32048 2.96659
22.4918 1.5261 3.47705
30.4367 1.31152 3.69483
18.3451 2.46425 4.38448
25.0046 1.67207 4.83409
26.4868 1.92247 3.51471
19.6635 1.68343 3.84198
30.1279 2.97335 6.36851
22.3189 1.83656 5.73244
22.1542 2.08043 6.00539
30.921 1.93038 3.81481
20.0196 2.25238 4.94734
27.7961 2.51233 6.76443
24.9558 2.19102 3.88615
17.2849 1.68802 4.04064
27.3491 1.70395 4.11778
20.7273 1.47783 4.25763
23.1686 1.29292 3.11378
26.9266 1.82224 3.71532
21.1937 2.5902 4.61118
26.2214 1.53814 3.89297
23.5675 2.89968 6.65926
18.9003 2.05369 4.57772
28.0507 1.71275 4.1616
19.104 1.36246 2.8588
22.4943 1.83099 3.8475
27.7263 1.33831 3.79582
17.7137 2.12411 5.91958
26.5553 2.19079 4.49313
25.0356 1.54818 4.04588
20.4135 1.71492 4.11948
25.3001 1.46856 2.78356
20.1858 2.28169 5.0374
21.9056 1.78653 4.88338
28.6142 1.83598 5.76925
16.73 2.08608 4.29301
26.2613 1.57713 3.90329
22.2935 1.56019 4.29061
18.4916 1.69672 3.84535
26.5549 1.94895 5.52499
20.0864 0.991386 2.71634
22.0924 2.52912 5.21603
28.7967 1.9409 4.64993
17.8449 1.42919 4.03915
24.705 1.22234 3.29833
22.839 1.49487 4.47976
17.7858 2.19072 5.10632
28.3473 1.88574 5.14508
20.6543 2.0303 4.09988
23.5823 1.84587 5.10599
25.0317 2.19419 5.89342
16.9463 1.80883 3.96489
28.6581 2.44504 5.63061
22.2083 1.89866 4.40498
20.0354 1.70995 4.49698
26.8948 1.21076 2.9398
18.3617 1.43239 4.9558
27.0706 3.11752 6.47519
23.4933 2.51081 5.66647
16.1758 1.91828 6.55452
24.9517 2.31635 5.12656
22.0344 1.80416 4.82289
19.1586 1.86531 4.16827
28.0382 1.94621 6.39789
20.1952 1.93613 4.01377
23.2144 1.65137 4.24044
23.5006 1.28306 4.51375
19.0906 2.77252 6.57396
23.3328 2.16555 6.24738
22.6898 2.4351 5.32883
18.0954 2.16274 5.0238
26.7247 2.10019 4.80196
17.2504 1.96757 7.16141
22.4087 1.92268 5.20732
26.782 3.16783 7.97655
17.3258 2.82358 6.93487
29.3999 2.24662 5.95965
20.5473 2.37227 5.97892
20.6136 2.77685 8.89159
27.2108 3.42496 9.05951
16.293 4.03084 8.18737
22.8264 2.69363 7.96768
26.8479 4.04992 7.38236
17.3783 3.0696 12.1476
27.1228 1.99602 6.07061
20.7836 1.90377 3.43211
19.5801 2.00542 5.53152
29.327 2.23095 4.34042
17.4292 2.55309 7.53659
25.4704 2.23642 5.87881
23.1536 2.42884 4.77009
18.1188 1.56133 4.9585
26.6183 2.25092 4.72853
19.468 3.321 7.38217
19.7311 2.05014 5.74216
28.3176 1.66644 5.88776
15.2688 1.66631 4.26152
24.7329 1.70653 5.87664
24.7664 2.35051 5.58293
19.1433 2.59443 6.69492
26.6229 2.39633 7.73492
21.9145 1.39213 4.47664
19.8869 2.53257 5.62258
26.6625 2.29124 7.49881
17.7626 2.15999 4.86944
23.1742 1.58262 4.24933
23.3333 2.28485 5.75858
16.5077 1.83759 6.18491
29.5205 2.22471 5.68344
18.7002 2.92536 8.60015
19.2546 2.77736 7.24082
24.6701 1.83503 4.61181
15.5535 1.25404 3.4016
24.3247 2.6691 7.46929
20.049 2.5278 5.45488
17.3722 1.30027 5.64619
26.992 1.69852 5.62202
17.0738 1.66635 3.39482
19.1521 2.25266 5.32066
25.9127 2.3649 6.86647
17.4549 2.13608 4.95942
24.2833 2.71271 6.82234
21.9923 2.13404 6.87674
17.2317 2.34341 5.12286
26.4535 1.92248 5.18991
16.7545 1.51666 4.84214
18.9316 1.83369 6.39885
25.7317 2.09086 5.53337
16.5335 1.70453 4.18882
22.2777 2.61131 7.05912
20.3445 1.23684 4.00829
16.2069 0.936476 3.62557
23.0046 2.38906 7.20412
20.1531 1.63691 3.98043
19.3085 1.81106 5.74801
25.009 1.86187 4.369
15.423 2.17913 5.9757
23.212 2.3638 6.57874
23.4768 2.07701 7.17899
16.9312 2.08118 4.83087
26.1239 1.42916 5.51221
17.8745 2.01286 4.99289
19.9073 2.34893 7.90131
22.9196 1.79917 3.73971
15.0801 1.5882 4.06066
25.877 2.39146 7.70524
19.7827 2.11097 5.79314
18.2316 1.64066 5.62168
24.353 1.70705 6.06185
16.6839 2.02502 5.08792
22.1451 2.11105 4.85025
24.1971 2.0861 5.73261
16.5926 2.95193 8.43818
25.2886 1.97659 6.58194
18.9204 2.17522 4.45694
14.814 2.48028 9.43518
27.6818 2.35407 8.15173
14.7217 2.35131 4.31511
21.9042 1.46344 5.05359
21.8065 2.52258 5.83402
15.6371 1.64557 4.08709
25.9968 1.64142 5.28246
17.9447 2.28376 7.20302
16.8415 1.17504 6.27939
26.2906 2.0641 3.95339
16.2462 1.62806 5.25728
21.5915 1.87338 6.22853
21.3889 2.8769 5.99267
15.931 1.64133 4.68882
22.3496 2.08415 7.85601
18.1963 2.49995 6.70055
19.4691 1.34535 4.36795
24.1782 1.47447 4.45358
14.0489 2.58528 7.13237
19.0692 2.21443 6.64472
22.3878 1.83767 6.86498
16.7717 1.71434 4.70962
21.1948 2.86209 9.03109
19.0628 3.57102 9.31793
17.1768 1.3953 5.2206
22.9817 1.92555 5.40913
15.245 3.28221 8.81128
21.103 1.28204 3.43513
19.0732 0.952613 3.24069
14.3803 1.39552 7.04935
25.0599 2.40704 5.91722
16.967 2.0365 5.13648
18.9298 1.11526 4.65745
24.4162 1.90964 4.94787
15.9233 1.78374 4.72685
21.0222 1.25859 5.10709
20.8855 2.9395 8.04496
13.1951 1.61465 4.98327
23.9112 1.67679 5.78202
16.7246 1.79876 3.51147
17.2922 1.37286 5.00585
23.6177 1.38952 3.85897
13.9573 2.17636 7.4744
22.0071 1.99424 6.00349
21.4561 1.98253 5.29075
14.7797 1.84932 7.12329
23.3938 3.34985 10.6007
17.1407 1.93759 7.49797
19.3015 2.07674 5.59939
25.3321 2.11521 6.20358
13.501 2.14167 5.09851
19.7504 1.40135 5.14075
18.9141 1.9396 7.50013
17.2872 2.55839 7.27621
22.6408 1.91108 4.81878
17.0208 1.59788 8.32791
17.3603 3.01997 8.90018
26.4346 2.19735 6.41054
14.4559 2.29596 5.50712
20.729 1.74442 7.12636
18.8341 2.14993 6.283
13.8436 2.05215 6.94771
21.6798 1.6674 5.19752
17.4584 2.18729 7.01021
18.848 2.80018 6.84619
21.8776 1.55242 4.9345
14.4777 1.35299 5.43722
19.794 2.02986 4.87536
19.8434 2.31392 9.72928
15.1237 2.09101 8.38344
23.0221 2.18094 5.88246
14.5941 2.06445 7.02687
16.3442 2.32232 6.62951
22.5769 1.38816 4.12286
13.5977 1.85532 6.07324
21.6909 1.23821 3.70698
17.5836 1.65296 6.08134
15.0784 1.90628 6.11759
21.5785 2.37768 8.77074
16.4536 2.65628 5.78275
16.577 1.66471 6.73139
20.3904 2.44068 8.27222
14.8839 1.80273 7.11476
23.7964 3.09457 7.01146
18.8047 1.57756 6.18541
15.4463 2.03826 5.35864
22.5735 1.67107 6.25406
14.7445 1.59995 5.79045
19.3297 1.79021 4.85579
20.8019 1.5501 5.82948
13.4158 1.952 6.68881
23.361 1.63447 4.40647
16.1855 1.13515 3.82695
14.7701 1.52915 5.39057
23.4706 1.59936 4.7448
15.1992 2.53159 9.14
18.3739 2.00248 7.15075
21.5143 2.4489 6.0564
12.938 2.15189 9.24123
19.9337 2.26282 6.90034
15.9176 1.54379 4.52564
15.0716 2.23657 8.77447
25.2853 2.10121 5.74136
14.4672 2.34472 9.4522
16.9497 3.33407 6.24702
21.3669 1.59243 7.25073
14.3986 2.00325 6.0899
22.7323 1.44379 7.09394
16.9995 2.01315 5.58175
16.0589 1.49522 4.44424
21.425 2.00079 7.03952
15.2677 2.23598 6.99757
17.9305 1.70452 4.66628
20.7087 1.31191 5.87311
12.6501 1.71861 5.38483
21.2321 2.49988 6.49576
17.6296 2.31381 7.3504
15.2406 1.48909 6.29791
21.903 2.5035 7.24141
12.5818 0.863406 3.70522
18.0828 1.86075 6.13408
20.8734 1.68475 5.29096
12.755 1.63351 5.46006
22.6701 1.76705 6.75853
16.8205 2.3057 7.87382
14.7166 1.88461 6.76385
20.8235 2.48416 7.03294
13.3083 2.03649 6.90146
19.5917 1.7778 7.07021
19.2667 2.3126 7.5847
13.6063 1.53297 6.5137
21.7742 1.73454 5.26492
16.4422 2.04416 7.07437
15.6878 2.94203 9.35768
21.7452 1.6219 4.05112
12.2523 1.41824 5.50648
18.0922 1.88814 6.11709
18.5674 2.43412 9.58985
13.4669 2.36109 8.14189
23.029 2.28309 7.38586
16.5133 1.75842 6.05574
15.2995 1.93052 7.10888
21.9518 2.55663 9.55306
15.0197 2.75526 7.29842
20.0061 2.55348 9.08405
17.9238 2.02938 8.87702
12.7313 2.15468 5.04365
21.2478 1.43045 5.09628
15.9105 1.10896 4.96232
15.7643 1.54647 6.0081
22.5765 2.27141 9.11353
13.1389 3.34003 8.81299
19.3335 1.62677 6.67042
16.962 2.16522 8.71355
14.0788 1.58923 3.57383
20.1966 1.70392 5.38945
14.0564 1.18814 6.60381
15.8602 2.68186 7.39829
17.8489 2.37169 7.89542
12.3661 2.09616 4.87917
18.9965 2.14745 7.80806
19.3538 2.11652 8.99016
14.4923 2.28323 6.61718
20.1789 2.88106 7.6824
13.9687 2.13544 9.94465
15.134 1.6608 5.17173
21.2152 1.86714 6.44784
12.1679 2.25336 8.05594
17.3813 2.5271 7.99693
18.1056 1.72819 6.42924
12.8298 1.69808 6.82758
20.2892 2.04077 7.73935
14.3215 2.25444 6.96551
15.9223 2.05582 7.30712
19.4038 1.53484 4.9001
11.9469 1.68575 8.43159
18.7066 2.38984 6.93228
16.3836 1.77463 6.14023
14.1033 1.67745 5.25783
20.3624 2.08547 7.04262
13.5625 1.40756 3.51355
14.5394 2.36034 9.65635
21.9075 1.59038 6.25922
11.4611 2.26681 7.82972
19.9694 2.58045 7.95518
17.7526 2.41157 8.96658
13.0805 2.90406 9.94822
21.1329 1.59198 8.38577
14.4207 1.66839 7.34402
18.2003 3.02577 8.70536
21.4157 2.12663 4.47883
12.3897 2.19129 8.2206
19.118 2.00096 8.69199
18.7728 1.42842 5.56144
13.8252 2.36483 9.47876
19.0135 2.38271 7.00294
14.1816 1.91996 8.10371
18.019 2.3054 6.79251
19.7115 2.41587 8.82919
13.0727 2.30491 9.91487
18.9775 2.12685 7.52527
16.4139 1.94197 5.74439
14.4389 2.51321 10.6968
20.9153 3.52864 12.4336
12.2098 2.45605 7.13983
17.2804 2.58949 9.89221
19.3976 2.1048 8.89527
12.4678 1.57801 6.1925
20.1745 2.25886 6.19943
15.4861 2.36962 11.7691
16.479 3.40552 11.8595
23.9737 3.09987 10.7578
15.8754 4.97834 23.4242
18.2642 5.47265 14.0473
19.8572 3.32105 17.1713
13.1833 4.80849 11.7978
20.5026 2.02515 11.5103
14.794 3.25248 8.49394
14.7473 2.40309 9.88482
20.0875 2.77665 10.4154
12.3846 1.79366 8.42605
17.087 4.35074 14.3803
20.6016 3.46335 12.1281
11.6099 2.17001 6.68727
20.6478 2.2916 6.00194
14.9097 2.11259 6.48044
15.4029 1.91324 7.76101
19.3202 1.66939 6.38105
13.0775 2.74431 9.47644
17.5261 1.63175 6.92184
19.2817 1.77832 6.82532
12.5582 2.16691 4.64821
21.4917 1.94642 7.65903
14.4781 2.77003 10.2588
16.0972 1.80304 7.42946
20.7856 2.2696 6.3753
12.4163 1.45655 4.45953
17.5442 2.14131 8.38667
19.173 2.06074 8.64263
14.7644 1.68386 8.2636
22.3328 2.70137 6.74288
15.5442 1.17754 6.72727
16.5828 1.53519 4.81494
20.8441 2.17089 8.18783
12.7365 1.92254 9.28493
19.1543 2.00168 7.01441
18.4625 2.31189 7.77944
13.5203 1.91904 6.48541
20.0641 1.31382 6.84629
15.662 1.82369 6.2172
16.1967 2.13355 9.9563
22.4653 3.23576 11.7551
11.4323 1.54869 5.26121
18.8886 1.78407 10.4927
19.1766 3.82446 8.11314
13.6686 2.31142 10.3038
21.802 2.17293 7.50114
14.7083 1.68516 8.47578
15.3031 2.45258 9.77336
21.4694 1.98534 4.81076
13.2187 2.73706 8.32828
18.9355 1.49835 4.70173
18.2568 1.53646 6.10431
14.5794 2.90044 13.6584
24.6584 1.92617 7.88824
17.1323 2.69809 8.34801
16.6698 2.78933 8.73462
19.9688 2.01576 9.50073
14.3153 2.30501 7.93773
19.5626 1.60783 5.03842
17.8006 1.74808 7.15272
14.1268 2.03314 8.07252
20.4311 2.20213 7.25473
14.074 1.86846 8.85273
17.3776 1.9812 7.43631
21.818 2.53473 8.36969
14.8817 2.24163 7.68486
19.3631 1.41329 7.20067
17.6266 1.30003 4.56072
13.4533 1.70044 8.10009
22.3698 1.75657 5.53761
12.5926 2.07997 8.50357
17.484 1.6571 9.48141
21.3841 3.85686 10.3
13.2953 2.43425 7.95559
19.2893 2.61785 10.0508
19.0033 2.32449 8.0919
13.38 2.77537 12.7719
25.236 2.35058 5.57689
15.0322 1.82363 8.33405
16.9518 1.80394 7.22434
19.3007 1.57743 5.31878
14.0714 2.73878 9.23192
21.0023 1.91525 7.91431
15.7938 2.62123 8.78043
14.5457 2.35255 9.15697
22.2128 1.96678 6.84616
14.5552 2.48502 10.9116
16.3976 2.21575 6.79017
18.0809 1.62281 7.31816
12.7308 1.99891 6.54757
20.0268 1.43362 5.20647
16.7904 1.61599 6.08938
14.7225 1.42918 5.80735
21.7962 2.57812 11.9417
12.7603 1.31101 4.79286
16.9227 1.92149 10.127
20.5196 1.82771 9.41333
12.2225 3.73094 13.3684
19.7672 2.15427 7.2881
15.7849 2.43434 8.95771
14.7629 2.4357 6.52812
20.0379 2.98302 10.6549
12.2068 2.245 8.27142
16.0102 1.72368 6.3969
20.7526 2.56724 8.95669
14.124 3.10183 12.1584
19.0325 2.33507 6.50778
15.4632 1.26285 9.26213
13.208 2.73931 8.34085
22.7617 2.23742 8.24775
13.083 1.65057 7.2596
17.0184 1.53453 5.27873
19.3919 2.05611 7.21144
12.8113 2.45546 8.16871
20.187 2.07919 11.5695
16.9155 2.43936 7.16623
16.0873 2.20957 8.91617
21.1408 1.92367 8.00295
14.3738 1.91122 5.35691
16.5525 1.9246 10.6297
16.9937 1.49002 6.95406
11.743 2.43066 6.40642
19.4816 2.71329 11.4881
17.0611 1.88964 7.75957
15.5138 2.32404 9.60106
19.4153 1.91387 8.50616
14.1241 1.85826 6.74669
17.375 2.16936 10.2867
20.3608 1.55885 7.24488
11.7643 2.61256 7.42639
18.7005 1.87896 7.17586
13.0927 1.53171 4.1991
14.4444 1.60149 8.40718
17.9349 1.93511 7.16711
12.0777 1.307 4.82277
17.5848 2.7517 9.13482
18.5064 1.72134 8.16529
11.7322 1.7578 3.67175
19.2961 1.60478 7.49136
12.8539 1.83669 8.76412
14.0195 2.25936 8.91258
19.418 2.29564 6.57615
10.3742 2.30261 8.51088
17.3114 1.28246 7.16936
17.7547 1.46431 5.93023
10.3327 1.8899 3.88106
20.471 1.89211 8.65066
13.207 1.20894 7.70747
13.9775 1.42148 6.28805
19.6371 2.75691 7.01536
11.2688 1.97877 11.0345
16.6081 2.50921 7.97162
16.2611 1.99104 7.42933
11.0489 1.8461 8.85159
19.6104 1.9767 9.61469
12.767 3.73018 14.3777
15.0223 2.86965 8.82928
17.7481 1.99384 7.99766
11.9097 2.07728 11.4927
18.6682 3.0445 9.2439
16.3124 1.83948 9.3368
10.8619 2.46647 7.13532
18.3313 2.31175 9.27083
11.9866 2.02501 8.21191
16.0758 2.03941 8.00767
19.1661 1.76718 5.31916
10.5446 2.03727 10.311
15.8876 3.23967 12.0659
15.4827 1.92612 7.14706
10.8776 2.1759 11.3664
20.458 1.84768 5.9047
14.7338 2.62437 7.70362
12.951 1.54119 5.9634
17.4961 1.66391 7.20106
11.5825 2.22772 10.659
16.6358 3.06482 11.9215
17.0825 2.22169 9.12533
13.7366 1.4829 5.56935
19.6451 2.30445 9.96316
9.91376 1.70215 7.22863
14.7926 2.23262 5.81364
18.4906 2.17223 10.5338
9.82077 3.11698 8.42951
18.341 1.91745 8.9301
14.6487 2.67787 11.1361
10.2362 1.80221 8.6571
19.435 2.47598 8.10574
11.5314 1.80929 6.51584
15.7703 2.18792 8.68644
17.6555 1.32678 3.90432
10.2076 1.12424 4.82964
17.4673 2.34864 7.51015
14.1465 1.77765 7.39683
13.2281 2.08161 9.18056
17.7906 2.16807 7.58869
11.4725 1.40504 6.76125
14.7007 1.39578 4.98253
17.0362 1.98122 10.0117
10.5213 2.78517 8.42082
18.9299 2.46009 11.5528
15.5394 1.83977 6.99481
12.0299 2.93925 10.7437
20.7077 1.94954 8.22687
11.6764 1.29159 8.32408
16.9708 2.71818 9.82129
17.7747 2.36718 7.52748
9.96432 2.05602 9.90853
19.333 2.35522 7.7578
13.5199 2.26424 8.42858
12.8527 1.91853 7.34698
20.9118 2.08925 6.79836
12.8911 1.43964 5.97008
15.7292 2.51283 7.45836
17.7564 1.52479 6.65966
10.8765 1.50152 8.30383
19.0888 2.41138 9.50895
14.0157 2.23099 8.1608
13.3821 1.9666 9.89083
19.0652 1.46249 5.68838
12.5634 1.94039 10.593
18.5532 3.31264 12.8259
19.8422 2.5349 8.99234
10.7661 2.0238 6.25103
18.4584 1.58059 6.35013
15.0226 1.63041 9.66
13.7467 2.06587 8.95404
19.2751 2.40955 8.74912
11.8573 2.6508 8.12997
16.9798 1.94744 10.9973
19.3309 2.49159 9.11608
10.6135 1.65302 6.76628
19.4895 2.34343 8.19255
14.9704 1.97548 6.80942
13.4864 2.43648 9.11194
19.0903 2.1714 9.62865
13.1951 2.06473 6.90405
16.0743 2.43425 11.0126
16.627 2.60723 10.0275
13.4606 2.62519 9.20492
19.4623 1.91562 8.43542
14.0754 1.99167 8.57948
15.3109 2.87839 11.9293
19.7284 2.10768 11.4119
11.6747 3.09381 8.10138
16.9286 1.65899 6.95124
18.1835 2.23535 10.2542
11.2075 2.05591 6.5624
20.5439 1.92657 7.13124
14.7654 1.58435 6.92634
15.6266 1.71855 6.40932
18.7554 1.99037 9.79853
13.2349 2.73641 7.75615
17.8743 1.42259 9.1553
17.3543 1.92169 8.97376
14.4992 2.29571 6.73957
20.2939 1.6768 5.4499
14.7116 1.5286 6.55787
15.2956 1.63989 6.83258
20.3975 1.84896 9.6225
12.0329 2.39059 7.92422
20.3034 2.16234 10.3528
19.7908 2.77319 9.96222
12.6313 2.66785 11.3174
18.8267 2.71215 11.0071
15.7864 2.56598 8.3391
17.1106 2.34466 10.9187
19.8336 2.23019 6.22961
12.6603 1.76706 9.90345
17.224 2.09914 7.59769
17.011 2.70769 8.6486
12.5773 1.8442 10.9018
22.9871 2.7511 10.9427
17.26 1.35199 7.49472
15.0119 3.80412 10.8668
20.2162 1.99519 9.32262
12.5111 2.42044 7.79975
19.9591 2.83666 14.3383
18.6804 2.56525 7.85298
13.1908 1.92866 11.5629
21.9144 1.69488 7.07181
13.4578 2.47774 9.74611
17.625 2.33816 10.4382
21.5537 2.73809 11.1749
11.4807 2.89092 11.0438
19.1567 2.1301 8.00601
16.3234 3.72525 16.1652
12.2455 3.51427 11.844
22.358 2.51832 13.046
12.8361 3.00201 8.07555
16.9185 4.72741 20.5748
22.3324 3.37312 12.3928
12.8776 0 0