# pn-170911/RbIIA-27-USN3-1280-1959.psd
# Power spectrum* (dif=0,1,2) (really just |FT|^2)
# NOTE: only the first half! (symmetric)
# weeks: 1280-1959
# 306 clock-days, 94 excluded
# PSD: 1441
31073.7 0.484581 0.0162932
611710 7.17568 0.00866477
3.8438e+06 82.5177 0.0111942
389017 14.1478 0.00995072
314719 20.3032 0.00989412
162373 15.5877 0.0103285
101248 14.4191 0.0125088
76103.9 13.8376 0.0105893
62465.9 15.7716 0.0118893
40730 12.9418 0.0138826
43261.7 16.6435 0.0146043
31337.3 13.8201 0.0175906
26843.9 15.9255 0.0198395
22183.8 14.0373 0.0188854
16169 12.1824 0.0203409
16031 14.0297 0.0224498
13852.8 13.3362 0.0265796
13591.2 15.0639 0.031441
12974.6 16.4488 0.0331542
11194 15.2399 0.0351377
8601.2 13.2315 0.0336819
8291.55 14.4797 0.0383771
6297.31 12.3128 0.0370631
6395.23 12.4136 0.0383628
6387.53 13.6368 0.0469333
6381.25 15.6002 0.0586331
5886.49 15.2548 0.0540326
4410.82 13.483 0.051908
4381.28 14.1809 0.0585087
5028.73 16.7244 0.0810679
3722.34 12.4013 0.0637609
3697.08 14.2103 0.072142
3039.91 13.0271 0.0699411
3969.24 16.0978 0.0922549
3329.77 14.9893 0.0889284
2935.43 13.9331 0.089486
2942.61 14.3853 0.0926787
2805.72 14.6072 0.10821
2779.17 15.2142 0.118034
2138.91 13.2155 0.10535
2500.76 15.674 0.130151
2028.41 12.4323 0.108118
1900.19 13.2662 0.120084
2058.22 14.6562 0.135409
2059.49 15.4826 0.143823
1795.46 15.5181 0.157585
1715.25 14.8259 0.158273
1635.19 14.1295 0.159642
1653.95 14.9478 0.181221
1369.84 13.3377 0.167313
1379.31 15.1078 0.187728
1646.56 15.8263 0.208606
1315.58 12.8523 0.171114
1159.24 13.9109 0.193546
1349.58 15.0018 0.201196
1268.18 14.2562 0.207217
1021.95 12.853 0.205901
1125.94 13.9807 0.217579
958.396 11.4782 0.193642
1047.78 14.8698 0.253545
1041.58 13.3826 0.23244
880.499 11.9246 0.214268
903.013 14.3592 0.263245
941.598 14.1418 0.276881
907.282 13.5883 0.279058
780.978 12.3058 0.25344
832.821 13.6213 0.299996
822.365 14.1217 0.314629
680.507 13.0099 0.30447
749.212 13.7874 0.324632
842.1 14.3912 0.340647
801.05 15.9488 0.389055
637.168 13.1194 0.318322
711.596 14.7326 0.37679
683.57 14.8593 0.400267
635.53 14.6079 0.402771
567.874 13.8316 0.384573
752.659 16.88 0.481671
577.711 13.6544 0.427648
566.783 12.9214 0.383943
533.268 13.1338 0.407498
494.647 12.803 0.417085
517.633 15.0222 0.485404
615.482 17.4091 0.563148
561.122 15.0345 0.513687
503.689 13.1249 0.466029
492.165 15.1897 0.545084
506.228 14.0473 0.512024
484.449 15.9174 0.591687
435.902 13.9408 0.534243
435.902 13.4828 0.528934
463.327 14.9963 0.592334
507.101 16.7806 0.673869
446.492 14.4339 0.646596
294.762 10.2313 0.443723
386.733 13.9216 0.605021
402.616 15.208 0.679996
348.708 12.1236 0.534505
347.38 12.9181 0.584508
395.768 15.7438 0.747939
380.709 14.5886 0.683736
301.15 12.1996 0.612947
416.483 15.4851 0.756475
344.717 14.2064 0.724093
380.007 15.3625 0.807664
309.258 11.8507 0.622742
314.787 14.0252 0.762789
321.377 13.84 0.750366
274.8 13.633 0.782511
364.567 16.8153 0.950409
303.822 13.6274 0.807347
281.509 14.5256 0.827129
278.162 14.3675 0.850609
333.619 15.8391 0.950847
270.006 13.7489 0.831172
273.579 14.6143 0.909524
290.93 14.1626 0.887287
257.471 13.2489 0.883787
260.292 13.5078 0.891687
270.511 15.2183 1.02134
281.26 14.9416 1.04486
268.238 15.2836 1.07915
237.768 14.9965 1.0467
202.098 14.243 1.0119
261.585 15.5583 1.11417
197.822 12.319 0.908628
222.818 14.3138 1.09191
203.654 11.8636 0.909288
198.329 12.0464 0.95494
211.924 13.8783 1.10266
223.873 14.0055 1.1265
199.019 12.8922 1.05029
180.891 13.3759 1.13209
197.477 13.6481 1.18358
204.096 13.2113 1.13494
216.41 15.7329 1.35197
206.209 14.0877 1.24775
191.34 13.924 1.25037
161.744 12.9584 1.1516
177.567 14.1899 1.28084
185.983 13.6806 1.27809
192.02 14.3038 1.33094
179.823 14.4776 1.34465
177.369 13.2728 1.28347
165.306 14.1008 1.3713
172.456 14.0146 1.41472
170.914 14.7523 1.46588
168.259 13.4452 1.37893
159.668 12.8769 1.32281
165.957 14.2874 1.48856
141.077 12.2706 1.29793
124.05 11.3708 1.26731
142.985 12.4106 1.34658
150.186 13.5207 1.49031
127.918 11.0122 1.23834
151.018 12.0903 1.38855
158.18 15.3338 1.75871
178.057 16.8461 1.97666
162.67 15.0066 1.74984
160.308 15.1462 1.78286
139.797 13.353 1.59088
143.848 13.464 1.62331
122.028 12.3748 1.5651
126.538 12.101 1.51972
140.315 15.09 1.93803
128.862 13.0748 1.69368
142.025 15.6146 2.04564
138.568 14.7032 1.89691
145.722 15.3736 2.03789
116.863 12.2163 1.65427
126.867 14.9871 2.05028
131.264 13.8202 1.92059
129.16 13.5572 1.94224
127.569 13.9611 1.96712
128.012 13.2983 1.87903
104.631 11.5292 1.70538
127.913 13.9948 2.01906
88.7691 10.6428 1.6148
112.487 13.4057 1.98127
118.214 14.2822 2.09113
117.228 14.0812 2.15613
116.979 14.078 2.16691
114.741 15.4399 2.48162
103.436 12.3844 1.95301
105.349 12.3748 1.94348
97.2602 13.6657 2.15907
95.6684 12.5292 2.07923
101.47 12.8479 2.11538
82.3377 11.7527 2.01268
84.7287 11.8379 1.98144
106.248 14.4667 2.4988
84.7595 10.1772 1.76481
90.1207 13.3734 2.2875
102.685 13.3418 2.39458
79.5325 11.875 2.10741
79.1442 11.833 2.208
99.8692 15.9138 2.84712
100.375 14.0786 2.48931
81.3605 12.9466 2.3709
96.2165 15.3022 2.83078
91.0698 13.5217 2.53869
79.954 12.3945 2.30975
86.2066 12.918 2.45668
95.5192 14.0203 2.70294
80.985 12.641 2.42638
82.0458 15.0132 3.03138
76.1547 12.5025 2.49089
83.4459 13.9893 2.87457
93.3793 15.1729 3.03836
82.0998 14.815 3.02273
84.8905 13.7452 2.81715
78.9496 13.278 2.77698
72.1041 11.2638 2.31479
75.8553 13.1931 2.80797
82.5492 14.6436 3.12112
72.1973 13.6663 2.90514
68.6334 12.6012 2.76197
84.6459 13.6814 2.98461
66.0847 12.8582 2.97613
72.4402 13.6352 3.04588
76.7841 13.4703 3.05249
80.3503 14.5904 3.23304
97.7946 16.7897 3.77166
67.304 12.8114 2.96192
69.0608 13.3625 3.10736
78.7161 14.705 3.46829
67.3437 12.4018 2.94523
61.3615 10.6451 2.57306
68.0556 12.9356 3.11025
69.9586 13.4669 3.20981
67.4641 14.7043 3.61055
58.2189 12.0933 3.14572
54.5318 11.6745 2.85353
65.7548 13.1861 3.44466
56.9723 12.5757 3.22953
54.6323 12.2757 3.2489
67.6484 12.3663 3.20234
64.5819 13.6991 3.60207
65.4829 14.7 3.9892
67.6425 15.0745 4.00787
62.5392 13.7845 3.68929
48.8192 9.88907 2.74205
54.5075 12.5138 3.56873
66.011 13.461 3.67713
62.8566 14.9347 4.0519
60.5544 14.6632 4.15168
67.5163 15.3872 4.34486
67.6809 15.0795 4.29684
58.4468 12.792 3.75641
58.3121 12.2917 3.43211
55.388 12.3801 3.60941
53.7024 11.9768 3.60842
51.2978 13.5812 3.9796
52.8839 12.2841 3.55578
47.3804 9.72836 2.96022
60.5564 15.3685 4.48216
50.1883 14.2179 4.40019
50.9388 11.2817 3.20152
50.3297 12.4155 4.00303
56.1109 12.9827 4.1875
55.5389 14.0637 4.41432
55.2163 13.1526 4.15425
48.2445 12.6949 4.00072
44.3411 11.3349 3.75539
52.7873 14.0574 4.61451
51.2903 12.9415 4.0965
45.09 11.1785 3.68431
52.3121 13.3688 4.48676
49.2611 13.2217 4.27669
51.9062 12.9615 4.28056
44.0008 11.1226 3.82196
40.7454 12.1873 4.08031
48.7195 13.6357 4.74933
45.108 12.8291 4.55746
53.7807 14.4064 4.79305
50.5077 12.1326 4.21199
50.2203 13.4669 4.78815
37.3825 12.0614 4.37688
44.0602 12.1583 4.08462
49.1351 12.844 4.55109
51.8709 15.5466 5.65742
43.4362 11.6392 4.27077
47.5718 14.3361 5.18699
44.4114 12.5341 4.61808
49.9591 14.3292 5.25307
38.5269 11.5134 4.37246
44.1624 13.9996 5.56224
47.604 15.2056 5.68177
44.18 13.1199 4.91966
45.1226 13.9345 5.44367
44.2895 13.8992 5.26392
38.2103 12.0284 4.76869
40.9767 13.1055 5.16861
40.7548 12.7812 5.18863
48.5421 14.9212 5.78591
35.9766 13.0789 5.23743
42.5488 13.2213 5.33929
35.5859 11.2426 4.56582
36.3777 11.5972 4.82759
43.3032 12.6983 5.20316
28.5279 9.27582 3.77175
45.4597 14.2042 5.73507
37.0359 12.1821 5.14938
41.5922 13.7269 5.96317
47.4336 17.2851 7.40983
31.7048 11.1072 4.9358
38.5908 14.4186 6.39053
37.048 12.6968 5.17877
38.1228 13.2082 5.62233
33.8493 12.0074 5.51808
37.4556 12.6751 5.78269
37.779 12.7746 5.59952
39.5478 12.6994 5.31021
36.1841 12.5809 5.44484
31.3137 11.4309 5.51421
37.1549 10.7302 4.76551
38.5386 13.1483 6.06061
38.1995 12.7948 5.63544
37.5874 12.9116 5.90496
31.0602 11.5023 5.62505
34.4414 13.3313 6.08564
36.3293 13.8342 6.29121
32.9758 13.2305 6.3027
32.2095 13.0313 6.12785
29.6086 11.6842 5.85526
34.7912 13.6259 6.64606
33.294 12.2983 5.90532
34.0896 12.6424 6.11914
29.1134 12.2629 6.28284
30.8351 12.7162 6.29758
31.98 13.0405 6.68639
31.7763 12.7 6.46891
33.5326 13.085 6.26527
27.6112 10.9145 5.43184
28.4542 12.141 6.4604
33.5183 13.1512 6.48547
32.7692 13.3593 7.2388
34.3122 12.4143 6.23062
34.7074 14.0352 7.26686
29.1267 13.3887 6.74905
31.4994 12.7514 6.98285
32.8433 13.4093 6.93999
28.7833 12.9543 6.8869
27.1556 11.287 6.20221
27.5095 11.7626 6.33657
25.8943 11.7323 6.30061
27.9109 11.0295 6.08635
29.7657 12.6556 6.77464
30.5238 14.2207 7.8707
30.2898 13.2492 7.56322
30.5461 12.3218 6.53647
28.8474 12.4361 6.71623
28.3225 11.6697 6.72346
30.6991 14.0816 7.73786
28.3243 13.2138 7.69442
24.2814 10.8343 6.54703
29.9118 11.2795 6.07641
26.9401 13.2893 7.70638
27.1039 11.2985 6.29099
24.7785 11.8649 7.08741
29.2881 14.5874 8.61679
26.817 12.254 6.97263
25.5642 12.517 7.5032
23.1572 11.1593 6.47609
24.3507 12.2172 7.22394
28.3385 12.1403 7.22903
27.682 13.215 8.11719
26.2021 12.6394 7.75916
25.1476 12.2853 7.83304
22.7595 10.148 6.01357
26.3167 12.3952 7.63152
23.8137 11.2495 6.69758
26.8288 15.2115 9.9324
26.2799 11.8492 7.13065
25.0245 12.4438 7.99569
26.4211 13.4462 8.4396
28.8935 13.8711 9.20827
27.1646 11.7894 7.1058
21.3279 10.5694 6.65767
24.9352 12.0561 7.85979
26.3846 12.5966 8.20228
24.7849 13.0902 8.19613
24.495 12.2672 8.17465
23.4998 11.8796 8.13416
23.1404 11.0428 7.45677
21.8056 12.7392 8.06894
20.3503 10.5815 7.52603
21.6384 10.8778 7.07405
21.731 11.1926 7.94689
22.7249 12.2619 8.48273
22.3346 11.8526 7.74048
20.136 10.6967 7.20082
21.6911 11.4363 8.19847
22.5839 12.2242 8.47603
23.5365 11.904 8.30875
21.5996 11.6232 8.16717
21.5922 11.2366 7.83422
23.27 12.6255 8.69527
21.1974 12.6642 9.39322
19.594 10.4905 7.70898
20.4954 11.0087 7.81145
21.9032 11.2877 7.97036
22.7263 12.4817 8.61016
21.8417 12.3982 9.17432
20.3702 12.1955 9.52175
22.158 13.0909 9.24746
19.0846 10.752 7.66918
21.9833 12.3398 9.48887
21.1569 11.9004 8.24538
19.847 11.6327 8.70962
21.1631 12.4558 9.49247
21.7351 12.757 9.84372
19.171 11.2256 8.37049
18.8781 11.4641 8.34138
17.6282 11.6196 9.10409
18.4914 10.7328 7.71643
20.967 13.1475 10.4273
20.9817 11.4304 8.57274
19.5907 12.0255 9.02815
15.7696 10.1029 8.39559
22.2067 13.7682 10.7218
18.1668 11.2736 8.74889
21.6304 12.5874 9.92124
17.4968 12.1274 10.1135
17.4502 11.2388 8.68499
18.6613 12.0446 9.6495
18.0679 11.7796 9.81553
22.5574 13.6021 10.5792
16.1073 10.8389 8.85831
20.7269 13.4812 11.1668
15.781 10.336 8.33377
21.1648 12.3554 10.4414
20.8551 13.2484 10.0794
16.2912 10.9309 9.65774
21.7939 13.143 10.6615
18.3426 11.9007 10.0174
15.0207 11.4521 10.4231
16.0302 11.5029 9.67596
20.662 13.6606 11.2885
17.1999 10.7503 9.5749
20.8062 14.3748 11.5839
16.6423 12.5337 11.1245
18.4467 11.4922 10.2785
20.4787 12.2586 10.1099
15.7978 10.9969 9.15794
14.4767 9.81561 8.89664
18.8071 12.2201 10.437
17.1994 11.3269 10.5181
18.2601 12.6612 11.4553
15.2934 9.69189 8.73354
18.8976 13.1504 10.6263
17.4702 11.5253 10.6312
15.9952 11.6877 10.4221
15.1677 10.5775 9.41139
13.6435 8.75751 7.92029
15.3409 10.7775 9.30188
14.33 10.1498 9.30198
17.8841 12.7827 11.0553
14.3312 10.8079 10.0081
16.1753 11.51 10.3109
14.9632 11.0482 10.3363
16.4421 12.4997 11.7372
17.1642 12.5835 12.0447
14.8804 10.8655 10.5819
16.8598 11.4542 10.1863
15.5202 12.2688 12.2821
15.9404 10.9784 9.72957
16.0948 10.3587 10.1841
15.2994 12.3919 11.4731
15.3484 12.6641 12.3024
14.6655 10.6062 10.0915
13.7121 11.4364 11.1908
15.5099 11.2104 11.256
14.1088 10.3248 9.92496
15.0263 11.731 11.469
13.6658 10.8207 10.3881
17.5426 13.5927 13.4519
14.3802 11.1684 10.9439
12.5016 10.3333 10.5001
14.8922 12.2913 12.4101
15.0382 12.1365 11.7113
12.548 9.5388 10.1415
14.8856 12.0094 12.0576
15.9989 10.6817 10.2862
14.5217 10.8887 11.1096
13.9459 10.9511 11.0551
13.9741 10.6628 10.5625
13.7918 11.1836 11.6134
14.637 10.9669 11.7643
15.9292 13.4912 13.9955
14.097 12.0982 12.0445
13.3409 10.8384 11.7368
16.1567 13.4253 14.0312
15.3152 10.7069 10.457
12.8916 10.1568 11.1446
11.8339 10.2101 10.6086
13.7105 11.3884 12.4971
13.659 12.1896 13.0293
11.771 9.88068 11.189
11.4657 10.2747 10.9508
12.6223 11.5378 12.3585
13.7556 11.506 12.6391
15.7425 12.9517 13.527
15.3351 12.306 12.8452
12.4359 9.98613 10.5868
13.0267 11.5815 12.4811
11.6023 9.44261 10.3439
11.8422 10.137 11.2785
13.9185 11.3307 12.473
10.7347 10.7401 12.4907
13.8129 12.2187 13.2645
10.166 9.66807 11.6078
11.6123 10.0362 11.5518
12.2753 11.9039 13.8555
13.8413 10.1513 10.8116
15.1508 12.2382 12.6879
12.3314 11.5605 13.6318
11.5798 11.4468 12.5735
12.1406 11.4811 13.7399
11.6928 10.5786 12.2859
13.7702 13.3949 14.4685
12.3849 11.2373 13.9604
11.4836 9.64648 10.7533
13.1718 11.4065 13.8538
12.4507 11.7899 13.6497
12.392 10.2202 11.6554
12.2643 11.3924 13.6487
9.66284 9.93649 12.1501
12.0026 10.6933 12.3626
12.091 10.3773 11.323
11.8249 11.0485 12.9185
10.815 10.2791 13.2787
11.3577 10.3098 12.6784
11.5691 10.0666 12.0838
10.8961 9.70759 11.5459
12.837 12.1248 14.1033
12.5088 11.4337 14.0463
11.2497 10.8028 13.0582
11.2967 11.0233 13.0435
10.8372 10.935 13.9269
11.8952 10.7279 13.6177
12.6019 11.6581 13.6743
9.75974 10.5288 13.9173
11.5722 9.61438 11.4831
9.41779 10.2309 13.414
12.0132 11.0665 13.0291
10.0672 9.5909 13.3473
11.9388 11.844 15.2893
11.0398 10.5449 13.6138
11.3533 10.7557 13.5969
11.5472 11.5423 14.2196
12.7569 12.2206 14.2792
9.21737 10.3619 14.2812
11.9312 11.442 15.0356
10.9735 11.0362 14.1459
11.9655 11.4113 13.516
9.03528 9.67132 13.1905
10.1202 10.0619 13.6181
12.1572 12.7109 16.0306
10.4266 10.8185 14.6925
11.3585 11.1149 14.7566
10.6542 11.4706 14.96
10.9402 10.5221 13.9685
11.126 11.2319 14.4184
10.4956 10.835 14.5905
11.1069 10.5558 14.2079
12.6563 11.1446 14.3699
10.0706 10.543 14.468
9.9055 10.1547 14.5591
11.0914 10.3992 13.9519
10.5384 11.0983 13.9607
10.5081 10.3714 14.1352
9.50807 10.6877 15.0806
8.43261 9.52851 13.5637
10.3475 11.3814 14.8907
9.81496 10.0307 13.7278
9.94853 10.9714 14.9931
9.95676 10.0349 14.4033
10.5955 10.5487 14.6196
9.54785 10.0617 14.8981
10.0284 8.93167 11.7162
9.90886 10.8845 14.4965
8.30029 10.1324 14.3295
9.11633 9.60133 14.5369
9.9275 11.5817 16.741
10.9153 11.9287 16.4989
9.05637 10.3834 15.4784
9.36972 10.3863 14.3067
9.40123 10.1438 14.2636
9.9331 11.21 15.7383
10.4331 11.1453 17.2023
10.0177 10.1923 14.3945
10.3006 10.2725 14.236
9.04776 10.1069 15.1363
8.74562 9.77726 14.7201
9.28714 10.4239 14.3075
8.16307 9.38058 15.0212
9.55399 9.91552 15.0027
9.51098 9.60913 13.8771
9.84193 11.8649 18.0989
10.8487 11.3666 16.641
9.82165 11.2413 15.8508
8.92993 9.77842 15.322
9.09465 9.6519 14.4105
9.82891 10.3946 14.9344
9.74333 10.54 15.5344
7.80033 8.84997 13.5045
8.33874 10.3686 16.1013
9.96705 12.1319 18.2292
8.63897 9.7456 14.3241
7.42009 9.66731 14.1011
7.81569 9.56018 14.7838
8.59629 10.3387 16.0458
8.32396 9.57617 14.8604
9.56922 12.4501 20.3889
9.81594 10.1871 15.2973
8.03468 8.81782 13.4515
8.24737 9.9652 14.7695
8.32893 10.2363 16.8208
7.77009 10.1032 16.1402
8.78116 10.5033 16.4853
8.28619 9.79913 15.1939
8.09192 9.52178 15.3361
10.1569 11.9366 18.6249
7.71848 10.1286 15.2646
8.68318 10.9274 17.6629
8.22894 10.8196 18.1231
9.86841 11.0485 16.3065
7.28305 9.99291 17.7849
9.7547 11.7313 17.5132
7.96619 9.50814 14.9799
8.32216 10.4299 18.1366
8.83007 10.3016 17.1757
8.59038 10.2428 15.3365
7.67887 9.29634 15.3525
8.15365 9.32941 14.0371
7.90457 9.92355 16.4667
8.26962 10.5097 17.3005
7.28948 8.84039 15.4872
7.24802 8.71704 14.2632
7.35164 9.98956 17.6746
8.70833 9.82175 15.0038
7.49507 10.261 17.8008
7.36415 9.04251 16.4398
7.98581 10.0703 16.1564
7.94558 9.07377 14.7844
7.94525 9.14113 15.994
7.81214 11.169 18.1022
7.42816 9.67956 16.7932
7.68903 10.2519 15.574
7.06583 8.68854 14.4563
7.17451 8.68951 15.3642
7.87171 9.54304 15.0469
6.14967 9.3514 17.7954
7.65816 10.2837 17.2823
8.34444 10.424 17.1018
6.63352 8.16162 14.0012
7.03991 9.09424 15.6697
7.42542 9.10679 15.1306
7.66185 8.89587 15.4763
7.25287 9.4009 15.9515
7.10591 10.3751 17.7255
6.98305 9.8369 18.8824
8.55426 11.0176 18.9239
7.25626 9.63054 16.4242
8.41432 10.6827 18.2046
7.68181 9.26426 16.6409
7.55086 9.49952 17.2665
6.81465 9.59985 17.7468
6.87483 8.85716 15.8433
7.8504 10.7711 18.7023
7.61771 10.6374 19.426
8.27668 11.0706 18.4949
6.49669 10.488 19.8283
7.95162 10.3695 18.3408
7.07572 9.48559 17.2577
7.18533 9.49761 16.2119
6.96292 9.34877 16.2853
6.72099 10.1226 19.1531
6.25746 9.55385 16.8712
6.79966 9.55534 17.9882
7.05185 9.20444 16.3662
6.35667 9.70782 18.4977
7.35702 9.30118 19.0782
7.46127 9.80305 16.1791
6.38074 9.29638 16.9008
7.00483 9.2476 18.442
8.37472 10.8375 18.7571
6.32713 9.75247 17.9021
7.0303 9.73879 18.0518
6.33215 9.33173 17.6755
6.40589 9.27141 18.6115
7.30957 10.4492 18.7537
6.25021 8.11352 16.7974
6.37347 8.97975 16.2316
6.20769 8.25607 15.9022
6.75958 9.0035 15.9522
5.90802 8.5715 17.3062
6.88371 9.27277 17.5292
7.33174 10.4635 19.628
6.37684 9.43027 17.85
6.188 8.99722 17.7312
7.27842 9.73515 18.2917
6.78765 10.0388 20.2213
6.42729 10.2941 19.2289
6.87576 9.59036 19.4939
6.86268 10.6121 19.4046
6.55499 9.8103 19.8889
6.74359 9.43573 18.4661
6.63168 9.17666 18.3987
6.78937 10.1258 19.4578
6.14204 8.88693 18.2181
7.12819 10.809 21.048
7.18656 10.0166 18.14
6.24162 9.97026 19.4341
6.90879 10.4866 21.4
5.78784 8.15913 16.6062
6.21666 9.73654 19.5292
6.20253 9.56606 18.8875
5.95292 8.13632 18.1548
6.99542 9.90259 19.3729
6.16291 9.11729 18.5421
6.68617 8.93 16.995
5.70812 8.74435 18.679
6.4292 9.15656 17.625
5.6465 9.23391 17.7465
5.66432 8.34557 18.6756
6.62025 9.03917 18.7329
6.24669 9.04556 17.4472
6.63185 9.78215 19.7575
5.78552 8.86868 18.3262
5.69107 8.16036 17.4128
7.68681 9.3818 19.0355
5.56777 9.48769 18.7418
5.58982 8.81996 18.7223
6.29147 9.04428 18.4899
6.02721 8.59793 15.6894
4.93914 8.45117 18.7086
6.01355 8.63103 17.7169
6.61134 8.6789 18.3987
6.41331 9.40561 19.2429
6.655 10.2763 20.3197
5.81679 9.33495 19.3006
5.90965 8.67774 19.4479
6.07185 9.99194 21.8052
6.19015 9.01097 17.6935
5.79194 9.73129 22.2236
5.74084 9.32427 19.9647
6.83026 9.68876 19.5068
5.42567 9.3553 19.9241
5.66896 8.28148 18.1564
5.99534 9.86606 20.5053
5.61049 9.06666 20.2088
5.58326 8.43347 17.348
5.61075 9.56509 19.7829
5.58546 7.70798 17.3559
5.47696 9.79688 20.9568
6.5701 9.76336 20.1529
5.88853 9.7956 21.1505
5.88328 8.48589 18.2518
5.19936 7.76757 18.4548
5.89083 8.95708 18.6991
5.48517 9.8771 22.2732
5.99091 9.0311 21.097
6.16417 9.22154 18.4232
5.61814 9.23518 19.5152
5.96878 9.51376 21.657
6.2212 10.3028 22.2501
4.93149 8.03857 17.2012
4.89924 8.69025 20.2307
5.78014 8.74126 18.8113
5.15059 8.1921 20.0028
6.37751 10.3497 21.0751
5.27259 8.14886 18.1688
4.84406 8.7545 17.6298
4.70879 8.5149 22.373
5.83363 9.09206 19.7394
6.33113 9.37976 21.5334
5.69441 8.64794 18.1596
4.78616 7.89251 18.1024
5.3695 8.797 20.2308
5.02893 8.24235 17.2526
4.60815 8.72505 19.6098
4.81595 8.71406 21.1997
5.20382 8.82908 18.5892
4.68002 7.36483 18.1246
5.62636 8.78949 20.1983
5.79285 8.88354 20.0799
5.4687 9.06941 19.8282
4.78601 7.10677 17.3428
5.03942 7.91841 18.2823
5.33069 8.51452 17.0359
4.13352 8.10374 21.2307
5.43652 10.0607 21.8101
4.55508 8.14692 19.7417
5.00638 8.92836 20.2899
4.91511 8.58703 20.5628
5.20837 7.66756 18.9924
5.54866 8.49492 18.5259
4.73185 8.11797 22.8118
5.14112 8.20084 16.3806
4.33027 8.48599 22.4669
6.05548 9.80089 21.866
5.54116 9.23409 20.371
5.06125 9.13159 21.7989
4.89005 9.22005 21.3161
4.76828 8.23025 19.2727
4.74503 8.48682 20.4098
4.7849 8.43181 21.0943
5.31334 8.70601 20.0965
5.17979 8.94389 21.6926
5.48711 8.53645 20.0852
4.62392 7.63358 20.3769
5.32772 9.42251 22.6422
5.36732 8.098 18.6925
4.64834 9.69142 24.737
6.22293 9.95039 22.3813
5.51537 10.1089 23.4048
4.93924 8.51363 20.6727
5.63727 9.4741 22.4713
4.28247 7.55641 20.9528
4.985 8.35774 19.4621
4.32093 9.72283 22.6352
4.9342 9.20853 23.6515
5.07259 9.27345 21.8555
4.58119 7.3691 19.3689
5.00021 8.70631 21.6715
5.24315 8.14131 19.4207
5.31234 8.88843 23.137
5.26344 9.70441 22.1843
4.81234 8.45336 22.4974
5.24016 9.73653 22.6648
5.36346 9.74156 23.1617
4.65567 8.8155 22.2784
5.23766 9.22995 22.6591
4.57596 7.29953 19.0158
4.84418 8.55922 20.6959
4.4469 8.41716 21.9769
5.02537 8.73909 20.5617
4.17146 7.97391 21.4015
4.65351 8.32085 21.0844
4.57894 8.11074 21.0061
4.55072 8.13511 19.4766
4.5723 8.23623 21.6084
5.05774 8.48885 22.6175
4.79415 8.71682 22.9108
4.60606 8.94423 20.5256
4.18227 8.07061 21.5516
4.36121 8.47028 22.1989
4.94753 8.25988 21.2163
4.78519 9.22029 23.9556
4.54821 8.76513 21.0923
4.31338 8.34809 22.1069
4.16862 9.05717 24.8361
4.61131 7.96526 21.2396
4.76951 8.45825 20.9801
4.33736 8.70157 22.5278
4.67811 9.01242 22.4845
4.81831 9.12699 22.5413
4.62597 8.06815 23.2978
4.77237 8.28235 21.5748
4.88927 9.45527 23.93
4.04649 7.38267 19.5801
4.20183 8.67747 20.4968
4.25497 8.08543 22.8976
4.65539 8.1207 21.0622
4.91542 8.20496 20.6447
4.02841 7.59958 21.3107
4.74127 8.8643 22.4526
4.31323 8.84222 22.258
4.22785 8.15446 24.4784
4.75719 9.15745 23.536
4.72953 8.72429 24.3386
4.81619 9.31404 24.3492
4.34816 7.67533 20.7949
4.62807 8.21746 20.5415
4.75878 8.7885 22.6527
4.38674 8.22895 22.917
3.98906 7.92863 20.4985
4.52119 9.33144 23.71
4.19724 7.88867 21.8792
4.46133 8.2741 21.599
4.31388 8.0539 22.2475
3.94758 8.11649 20.7024
4.30414 8.87559 26.2019
5.08676 9.78722 25.5116
4.25409 8.1177 20.6677
3.95184 8.60425 23.9218
4.37814 7.83961 22.4365
4.21552 8.74908 23.7114
4.11374 8.1316 21.2368
4.24193 8.86887 23.7206
4.0376 7.25107 19.5598
3.59261 8.10996 23.4529
3.96558 7.61527 19.7764
3.49071 7.08766 20.8473
4.57564 9.12508 24.0274
3.91275 8.27478 23.8167
4.29136 7.56718 21.4916
4.49249 8.24301 22.1818
3.78101 8.1296 23.7857
4.52175 7.73384 21.1716
4.6483 8.10481 21.2504
4.69392 9.25039 25.0195
4.24074 8.08384 21.6856
4.03071 8.76212 24.935
3.90518 8.69205 25.503
4.42827 8.88554 22.4001
3.75551 7.46126 21.2737
4.17616 7.75843 23.5958
4.48543 9.35741 24.8513
3.76654 7.99523 24.1149
4.05835 7.37311 23.3671
5.01464 7.97076 20.6645
4.13359 7.72051 23.651
4.75477 9.51296 23.7527
3.95449 7.83647 23.5071
4.6627 7.52798 21.4039
4.23503 9.04108 23.5252
3.40194 7.43317 22.0215
3.93451 8.36231 24.8885
3.85793 8.07719 22.4417
4.03536 7.22541 21.0073
4.00187 7.42354 22.2075
3.62289 7.77376 21.4576
4.07498 8.01673 23.418
3.8324 8.84184 22.9371
4.06309 7.87257 22.6795
4.08368 7.59927 21.4195
3.74492 6.74699 20.0872
3.94067 8.03579 23.8295
4.37576 9.1658 26.4886
4.13325 8.43409 23.8756
3.24802 7.56882 23.2071
3.9687 7.96248 23.946
4.19202 8.48712 22.8644
3.12308 7.27581 21.7288
3.93473 8.48865 23.4588
3.5118 6.84627 22.1446
3.76606 7.80525 24.7708
4.33417 9.56485 26.6852
4.21128 8.4827 23.9318
3.77047 7.48181 22.0807
3.94732 7.98821 23.1735
4.26458 8.68593 24.5571
3.85047 8.02409 24.1896
4.2685 8.40047 23.2915
3.43009 7.5911 23.2121
3.51757 8.75415 26.3815
4.05996 7.95928 24.183
3.62135 8.06213 22.5511
3.55767 8.4091 23.3269
3.71663 7.41567 23.9479
3.30734 8.56748 25.0509
3.99259 8.51023 26.6893
3.76761 7.42453 22.9369
4.20318 8.6076 27.0186
4.29397 8.10322 21.544
3.57711 7.96867 22.3135
3.80017 7.05967 21.7441
3.67343 7.8925 23.6043
3.77873 8.30526 24.0005
3.49999 6.28519 19.2452
3.33811 7.89896 25.6538
3.99413 7.83958 22.4177
3.37013 7.21486 26.867
4.21865 8.71697 24.7639
3.93338 7.67624 20.1974
3.28632 7.93072 27.1169
4.2631 8.84499 26.7816
3.74473 9.22225 25.3051
3.48415 7.42072 24.1986
3.6979 7.60545 21.5764
3.53354 7.40734 21.7443
2.95709 6.5449 21.5164
3.6869 7.31612 22.4092
3.28232 8.71419 27.7126
4.11508 7.62098 23.1973
3.85681 7.48228 22.9781
3.83169 8.09077 25.6818
3.81976 7.68517 21.0571
3.63383 8.08161 23.1776
3.66333 7.30226 22.2027
3.58977 8.42176 25.2772
3.54556 8.06736 26.2594
3.88847 8.05746 24.2739
3.65362 7.77509 24.0748
3.47023 7.56497 24.7105
3.23032 7.14313 19.942
3.52932 7.2157 22.8582
3.01964 6.97009 19.9109
3.21962 7.31326 24.9696
3.36518 6.73076 22.2186
3.51114 7.62579 24.6142
3.76167 7.48871 23.0902
3.38388 6.83219 22.6567
3.43202 7.99447 25.7426
3.69773 7.5591 21.3516
3.11896 7.51186 25.1682
3.59223 7.76291 23.0359
3.26699 8.11484 26.1359
3.76822 8.49218 23.933
3.41416 7.96249 27.393
3.84415 8.71265 25.8409
3.39774 7.7205 27.2575
4.02241 8.22988 24.093
3.43761 8.1292 25.5577
3.56849 7.87642 24.5404
3.53867 7.59042 23.4809
3.40079 7.87695 23.0921
3.41822 7.23767 24.3495
3.13349 7.385 21.024
2.96672 7.83456 26.0503
3.30899 7.35267 23.0012
3.04306 7.16139 24.7101
3.38836 6.91831 24.3143
3.60937 8.10811 26.2827
3.66969 8.26706 24.1845
2.9795 8.4134 25.1078
2.9435 6.48338 23.9175
3.58781 7.83864 24.1514
3.29649 7.50721 24.0609
3.09287 7.05799 23.3627
3.27633 7.20499 22.8448
3.12352 7.33743 25.5392
3.33794 8.27811 23.977
3.27698 7.4111 24.597
3.04468 7.01143 24.0759
3.19226 7.60273 24.401
3.19979 8.39715 25.4181
3.182 7.34565 23.6804
3.28879 6.98643 25.7486
3.4675 7.11535 25.4013
3.14628 7.83882 25.0835
3.84284 8.18355 22.264
2.96212 7.42491 25.381
3.40567 8.14224 25.3638
3.21285 6.78542 24.7778
3.66395 7.95438 24.9871
3.33991 7.53051 23.1012
3.08237 6.786 24.095
3.11708 7.51631 25.4191
3.51103 7.55656 23.6116
3.59535 7.20682 24.7337
3.18379 6.98272 24.1297
3.11267 7.27956 24.6687
3.63187 7.90122 25.7789
3.33001 8.49379 25.6723
3.01223 6.99364 24.4275
3.00268 7.38114 23.7113
3.11 7.47413 24.2881
3.32636 7.32972 22.8033
2.80173 6.74492 24.5807
3.42325 7.88443 25.9972
3.13916 7.13007 25.5706
2.95328 7.46843 24.8323
3.29813 7.78606 26.0382
3.34378 7.12655 23.3098
3.24463 7.39452 23.1773
3.21098 8.17431 26.3705
3.05586 7.37154 27.2443
3.07174 7.17618 24.8344
3.1378 7.67913 25.5122
3.31679 7.2676 23.0163
3.12953 7.61168 25.0706
3.19895 8.28618 29.3541
3.50918 7.61774 24.2189
3.3085 6.82774 22.4972
3.20535 7.37368 25.0982
2.92853 6.52714 24.0968
3.13449 7.32607 24.9696
3.19567 6.89609 24.4816
3.18409 7.74405 23.5673
2.96157 7.50275 24.6028
3.0317 6.18902 23.5939
3.28588 8.03142 25.1654
3.01398 7.33246 22.5993
2.79005 7.60183 28.4171
3.44884 6.85987 23.9675
3.10644 7.14041 24.4872
2.9503 7.01608 23.8594
3.16061 7.90104 26.0063
3.02052 8.08136 28.2001
3.01939 7.7799 23.8063
2.8327 6.5096 24.5546
3.22816 6.76383 24.0611
3.12294 7.11465 25.874
3.0505 7.39989 24.1676
3.28788 6.59508 25.0164
3.36101 7.5348 25.1396
2.91577 6.83213 24.8574
3.08305 7.88463 25.9729
3.09215 6.99766 24.0374
2.87151 6.9338 23.2723
2.81459 7.80017 25.5639
3.00875 6.65955 24.8454
3.00957 7.1856 26.3141
3.16222 7.52726 26.4773
3.26269 8.59759 29.9182
3.29465 7.12509 24.072
3.19947 6.88691 25.4536
2.84661 7.55016 26.3673
3.07296 8.16635 25.8337
2.95797 7.3045 25.8697
3.09682 7.64182 24.997
2.91796 7.10086 24.5256
2.90164 6.55526 24.1447
3.18702 7.6385 25.1663
2.75095 6.89111 24.3526
3.03226 7.72425 26.5593
2.77106 7.8103 26.7366
3.07443 6.85823 22.368
2.49805 5.82018 23.2681
2.86431 7.0042 25.2598
3.11741 7.46785 25.7079
2.98875 6.57864 22.4703
2.9613 7.42019 26.4131
2.99318 6.33067 23.5792
2.72794 7.14196 24.1898
3.00642 7.41213 24.9224
2.77742 6.863 25.786
2.94979 6.6908 23.8993
3.09484 7.73179 24.6364
2.79402 6.91061 24.1943
2.96878 7.45589 26.9009
3.07575 6.61138 23.2597
2.89019 7.46598 25.3379
2.92575 6.52058 21.8813
2.56361 6.23804 25.1726
2.79409 6.2793 22.8395
2.83865 6.52871 23.8364
2.8144 7.59968 25.6924
2.91566 7.27079 26.3954
3.1839 6.20382 22.5438
2.83767 6.63289 24.948
2.98063 7.10624 24.8972
2.77445 7.03426 25.4849
3.19813 7.38123 24.8938
2.74886 7.34795 23.3161
2.27204 6.02337 26.3486
3.1413 6.95739 25.5707
2.9926 7.33342 26.8301
3.18768 7.35985 24.7702
2.82897 7.15109 26.2521
2.92798 6.93988 25.5175
2.8339 6.65744 25.6015
2.87038 7.09796 25.1646
3.14115 7.13836 24.2409
2.75882 7.66434 28.6866
2.97508 7.03197 27.7379
3.144 7.94453 27.3349
2.7236 7.49578 28.8641
3.14939 7.75906 27.8312
2.96411 8.13118 28.3157
3.28785 8.09567 29.0336
2.92097 7.36272 27.4378
3.17454 7.33831 23.7265
2.98099 7.47533 26.3445
3.04 7.56992 27.2526
2.93246 6.81151 24.2214
2.8247 7.05268 28.2351
3.04896 7.83781 26.019
2.59678 7.21298 26.983
3.00592 7.94442 27.5927
2.77498 6.20744 24.6977
2.61315 6.99899 26.4293
2.78688 6.94998 24.6249
2.62657 6.99696 28.1282
2.86186 7.50451 25.1024
2.90418 7.22211 25.0685
2.56738 7.46482 25.7865
2.91746 7.50962 29.028
2.95638 7.01345 26.374
2.9707 7.00177 23.7977
2.67598 6.95852 24.3294
2.64239 5.88734 22.038
2.75909 6.71119 27.8181
3.15116 6.67665 23.8587
2.82427 7.33147 25.3369
2.65335 7.0026 28.0381
2.84286 6.88143 24.8779
2.66889 6.91333 22.6677
2.50478 6.62064 26.5944
2.94319 6.61364 25.0724
2.63114 7.11439 25.4442
2.33539 7.08841 28.0375
2.78277 7.12314 25.7254
2.78801 6.74691 25.7187
2.71957 7.20223 27.3173
2.53142 7.0917 26.2179
2.58254 7.06993 27.1394
2.81305 7.14925 26.3106
3.01907 7.35497 25.2247
2.65135 6.59823 26.4536
2.92134 7.64518 28.1473
2.6406 7.73305 25.5556
2.63443 6.97116 25.5072
2.59004 7.05935 27.7848
3.10002 7.14681 27.9619
2.94187 7.39453 25.7426
2.85444 6.93566 24.3768
2.49313 6.67815 24.4462
2.73137 6.16117 24.8505
2.62622 7.00911 25.5507
2.93079 6.0029 23.5201
2.62241 6.5304 25.1046
2.71108 6.23443 22.6865
2.68717 7.39794 29.0044
2.91458 7.39494 25.5282
2.73627 6.33843 25.0561
2.76823 6.20288 22.7918
2.49097 6.67737 26.0411
2.71553 7.73054 29.894
3.12339 7.89032 27.9244
2.95208 7.35948 24.7251
2.45621 6.60138 26.8128
2.9463 7.14612 27.6273
2.85219 6.79406 24.3814
2.51848 6.84656 25.9478
2.66761 6.63123 27.4318
2.68778 6.90784 24.9852
2.46536 6.89948 25.2246
2.6706 6.57009 29.8195
2.93542 6.86069 25.5655
2.72096 7.04873 21.8477
2.40159 8.00053 32.2836
3.17134 6.54567 26.0362
3.14355 6.50429 21.9088
2.3696 5.54502 22.5021
2.53935 6.231 25.9172
2.62887 7.92924 27.8939
2.78742 6.87969 27.4801
2.8894 7.53005 27.0926
2.9016 7.50891 27.8082
2.62561 6.95786 24.8403
2.4912 6.87308 24.9089
2.50218 6.75903 26.1513
2.89591 6.44364 25.3017
2.56354 6.11031 22.5314
2.44651 6.65728 25.4226
2.77078 6.36096 23.3056
2.30206 6.69698 23.6583
2.27523 6.01541 27.4356
2.76801 6.88108 28.2083
2.782 7.11451 25.0346
2.47397 7.19516 27.2073
2.77549 6.94395 27.1182
2.49854 6.68919 24.8711
2.72144 7.29492 26.6957
2.72195 6.34033 25.2615
2.84321 7.50598 27.2475
2.60267 6.89468 26.4764
2.72035 6.46292 25.6733
2.81411 6.80254 28.5594
3.00862 7.12823 27.3543
2.95413 6.9766 24.6159
2.74701 6.30841 24.0568
2.2228 6.73936 26.0542
2.52826 7.14649 28.7295
2.57323 6.69006 22.5647
2.36003 6.59739 25.2421
2.58327 6.49171 27.1994
2.5823 7.0531 27.7679
2.97832 6.68724 23.4139
2.4529 6.66824 25.9623
2.74771 7.34562 28.3057
2.66742 6.64508 27.7308
2.57562 7.31455 26.9881
2.53099 6.70309 25.7545
2.46912 7.41475 26.4858
2.5258 5.96232 23.7929
2.29604 6.482 25.6353
2.57345 6.665 26.5117
2.42972 7.79317 29.3493
2.77433 7.05678 26.1293
2.57415 5.82147 26.897
2.7568 6.88891 26.7172
2.76605 7.53001 27.5542
2.50776 7.07755 27.3995
2.66237 6.16107 26.1598
2.57803 6.54553 24.0633
2.2629 7.03425 26.1372
2.62027 7.43836 28.1519
2.61612 6.66715 26.7201
2.48027 7.05371 23.8712
2.45747 6.7717 25.9818
2.54607 6.33978 27.7795
2.80671 7.30169 25.1165
2.43425 5.80445 23.583
2.42276 6.06373 23.2278
2.37024 6.45882 26.2492
2.57161 6.25392 23.9055
2.55954 7.57288 27.9423
2.50818 6.32908 27.1266
2.69682 6.6127 25.9194
2.68196 6.93621 25.0846
2.51491 6.96876 28.731
2.75899 6.40401 26.3038
2.54437 7.60448 26.7439
2.68695 6.55151 28.6908
2.6672 7.68768 28.5372
2.65194 6.82779 29.5017
2.606 6.8816 26.9915
2.63961 7.08159 26.1593
2.23423 7.49113 30.4607
3.11584 6.92131 26.8631
2.60787 6.61017 24.7243
2.40907 5.85356 24.0665
2.54526 6.08927 23.4367
2.47584 6.56457 25.6507
2.48687 6.32713 24.7788
2.47839 6.9613 29.4827
3.09826 7.16163 26.3527
2.59694 6.63449 29.5107
2.75375 6.78174 22.3638
2.44364 6.15111 26.9965
2.65545 7.74204 28.9945
2.68707 6.78127 28.5243
2.71727 6.52866 24.5291
2.69476 8.01057 31.7271
2.55528 6.89142 25.7114
2.37173 6.00568 25.6896
2.57908 6.90317 25.3942
2.45351 6.32793 27.0138
2.61047 6.7536 27.0696
2.45333 7.04976 26.6921
2.58328 6.73428 25.9898
2.52044 7.58029 29.7403
2.53308 6.71003 26.7594
2.59854 7.79388 30.6132
2.78409 6.76927 26.769
2.59535 6.58639 26.1588
2.42852 5.91649 23.6593
2.37715 7.12014 26.0565
2.56172 6.0416 25.7283
2.42894 6.8328 25.4994
2.50483 5.96145 24.5172
2.22465 6.70991 26.8596
2.79128 7.08975 27.2806
2.50551 6.5721 28.5736
2.5788 7.01151 24.2719
2.45072 6.24332 26.2169
2.39257 6.82071 28.3821
2.72279 6.36346 23.7582
2.46476 6.32388 26.5207
2.6194 7.24106 28.1897
2.68814 7.37469 28.0924
2.45142 6.76366 25.173
2.39482 6.74329 25.331
2.3783 6.49872 29.6076
2.82478 7.29456 27.6512
2.38708 6.50513 25.4485
2.41212 6.78671 28.7811
2.72709 7.53353 27.2568
2.5039 6.38076 29.6402
2.68997 7.39835 25.8443
2.35868 7.55999 29.1964
2.67694 6.95378 25.0227
2.31162 6.45087 26.5901
2.44673 7.11686 26.8346
2.76774 6.48928 24.9016
2.32544 7.13273 27.3869
2.36925 6.42355 25.588
2.29977 6.05632 27.1032
2.42791 6.14291 24.93
2.61502 6.09581 24.8203
2.3695 6.80384 28.6115
2.88373 7.3199 26.8831
2.60841 6.08815 26.4851
2.51348 6.90198 27.4989
2.78273 6.21581 25.254
2.44848 6.67018 24.273
2.09251 7.00886 27.4806
2.76149 6.67055 27.5828
2.63478 6.27602 26.9342
2.48088 7.14027 26.4937
2.49713 6.99758 30.5166
2.63382 6.3738 25.1964
2.49832 6.80873 24.9724
2.41544 6.50972 29.1159
2.43356 7.12351 28.8172
2.73907 6.34076 23.4558
2.21925 6.41873 25.6146
2.25651 6.59052 26.7782
2.47722 6.21159 27.5524
2.52281 6.80965 26.1003
2.67505 6.52084 22.9664
2.10913 6.76847 28.2795
2.72901 6.69975 24.6022
2.11151 6.21323 26.4971
2.33247 6.47623 25.9896
2.27216 6.71151 26.4333
2.64978 6.84596 25.2188
2.38699 6.12243 24.6385
2.32164 7.02156 27.7845
2.6992 6.46176 25.4624
2.51113 6.00321 28.127
2.50481 6.15718 26.4527
2.57834 7.22093 26.9363
2.47867 7.02224 28.4404
2.56097 7.23596 27.6323
2.52753 7.60122 30.2818
2.62877 6.77363 28.5267
2.72536 7.19121 26.6271
2.66668 6.61634 25.9719
2.49295 6.41094 24.1915
2.29563 6.65631 28.5438
2.55682 6.96852 27.7526
2.78916 7.60764 26.8797
2.45501 6.43072 28.2428
2.73717 7.40175 28.8269
2.61248 6.76004 27.286
2.44146 7.4161 28.2572
2.68452 7.34367 30.0677
2.78806 6.68289 26.1942
2.63897 6.55438 28.5165
2.73159 7.79085 27.4548
2.58824 6.36931 27.039
2.83943 6.84262 25.0518
2.44003 6.69639 25.5031
2.29433 6.91506 29.1249
2.77352 6.77947 26.0475
2.36607 6.55944 29.4749
2.68669 7.2076 27.1171
2.49528 6.59019 26.8604
2.60211 6.66979 25.6241
2.66294 6.66135 28.0409
2.77708 7.09037 25.9592
2.54887 6.56979 26.8733
2.5069 7.05982 29.1744
2.69533 6.45596 29.793
2.64687 6.8663 25.4427
2.52265 7.1247 27.4407
2.38378 6.98277 27.5659
2.51731 6.34934 26.036
2.66821 6.94276 27.7005
2.58759 7.6575 30.6846
2.83496 7.35889 31.4042
2.84447 8.5798 29.6872
2.37731 6.87899 28.698
2.95677 0 0