# pn-170911/RbIIA-33-RbIIA-1280-1959.psd
# Power spectrum* (dif=0,1,2) (really just |FT|^2)
# NOTE: only the first half! (symmetric)
# weeks: 1280-1959
# 127 clock-days, 49 excluded
# PSD: 1441
18150.8 0.367516 0.0104922
1.33334e+06 32.934 0.0065796
4.04484e+06 61.8862 0.00736217
1.0362e+06 31.4265 0.00701147
753707 64.4933 0.00826152
598203 74.8436 0.0128806
374617 36.9004 0.011544
241675 32.3129 0.010491
103674 14.9379 0.0084265
58564.6 9.12765 0.00867234
42829.4 12.0348 0.0114098
34294.1 8.50935 0.0112649
30323.8 7.46046 0.0105084
37651.7 18.0281 0.0162062
25164.7 12.162 0.0131239
24378.8 10.3709 0.0162592
16290.2 7.72767 0.0166293
14147.5 6.43518 0.0141644
14234.6 8.76882 0.0187879
9334.51 7.51916 0.0176245
7902.88 6.25662 0.015911
7542.37 7.62588 0.0205341
7307.87 6.97997 0.0242394
6498.93 8.02158 0.027316
6920.34 6.23993 0.0205158
7076.53 6.80184 0.0265664
5996.23 6.76107 0.0261658
4734.46 7.40254 0.0284298
4033.53 7.25157 0.0332034
4038.72 5.4769 0.0258535
5503.79 8.89198 0.0434645
3508.31 4.90228 0.0270425
3735.5 6.14135 0.0346416
3111.24 6.26932 0.0368532
3281.6 6.61396 0.0400702
2798.54 5.5178 0.0332232
2858.52 6.92173 0.0442412
2842.45 6.05665 0.0430477
2579.76 5.77998 0.0434837
3011.5 6.20588 0.0513799
1875.93 5.30543 0.053881
2140.31 5.80809 0.0508752
2516.39 6.91086 0.064738
1912.75 6.91816 0.0641686
1747.39 6.0336 0.0601739
1329.37 5.82334 0.0605949
1566.57 5.88305 0.0656401
1814.39 6.66472 0.0745
1958.61 6.35829 0.0723635
1383.45 6.13973 0.0747112
1528.17 5.70439 0.0778026
1478.53 5.50734 0.0792693
1340.91 4.62496 0.068321
1332.37 6.73883 0.0945742
1293 6.28333 0.0941336
1167.75 5.8648 0.0857503
1070.51 6.16204 0.0918609
1086.45 5.76559 0.0937454
1139.19 5.06248 0.0805537
945.281 5.04309 0.0872938
757.218 5.56357 0.100128
884.712 5.2937 0.102845
1028.22 5.5903 0.112199
922.725 5.78736 0.116741
1047.12 5.97136 0.122588
1015.94 5.80063 0.12212
891.915 5.7044 0.121911
806.53 5.94272 0.137368
779.078 6.0649 0.13767
688.162 5.88203 0.140158
661.556 4.71324 0.112599
750.028 6.03022 0.148208
686.644 4.9267 0.127931
687.436 6.61968 0.176391
729.969 5.68537 0.153892
652.94 5.34267 0.154041
579.822 5.0566 0.139857
572.723 5.45936 0.170392
575.311 5.09896 0.160207
587.99 4.95729 0.152486
636.039 5.72792 0.184405
614.173 6.11758 0.193983
595.887 6.17178 0.198106
493.118 5.576 0.18306
493.122 6.60896 0.221543
492.207 5.82444 0.204384
441.637 5.48889 0.196666
449.88 5.5821 0.206478
519.564 5.40039 0.202285
559.464 5.71597 0.217928
536.009 5.8994 0.224299
434.809 5.9103 0.228116
399.824 5.16712 0.214047
355.644 5.24254 0.216715
388.234 4.9838 0.215368
368.28 5.64468 0.247128
432.116 5.63204 0.255664
407.191 5.452 0.247368
388.92 5.81709 0.272929
385.063 6.24418 0.31095
378.976 5.58714 0.262663
323.707 5.7007 0.282366
363.476 6.38246 0.318833
323.459 5.73793 0.284512
346.286 5.4491 0.282614
358.159 5.94153 0.305774
323.493 5.13092 0.278558
335.078 5.4431 0.307142
274.102 4.96837 0.287781
320.087 5.60602 0.322809
291.704 5.2399 0.304887
306.718 5.26177 0.318672
296.38 6.30338 0.379336
312.25 4.99801 0.290496
340.845 5.27947 0.328178
299.319 4.98578 0.326074
302.117 6.03227 0.398371
275.21 6.26543 0.405403
235.155 5.58828 0.371282
227.288 4.51079 0.306141
251.692 5.94984 0.420211
271.279 5.05869 0.362908
236.612 4.77774 0.333987
271.544 5.84464 0.422615
223.32 5.06693 0.379032
220.648 5.22531 0.388689
201.421 5.83382 0.43818
203.499 4.61967 0.347793
219.093 5.63681 0.452613
248.472 5.78731 0.46144
222.491 4.82663 0.380804
266.252 5.9555 0.481986
202.807 5.86312 0.494397
209.512 6.61886 0.552689
189.526 5.8398 0.504086
167.302 5.70657 0.491168
206.729 5.70853 0.501575
179.964 4.82503 0.43746
204.829 4.91261 0.444536
240.009 5.65577 0.509394
229.63 5.56413 0.517728
203.356 5.52615 0.528747
198.95 5.67207 0.549856
154.637 5.39365 0.540491
169.037 6.3382 0.620928
162.696 5.68531 0.565167
183.283 5.74925 0.607146
198.182 5.75592 0.599711
188.977 5.52582 0.579544
168.637 5.47058 0.576461
144.29 5.65812 0.604627
152.215 6.20527 0.667529
136.996 5.38268 0.598088
153.229 6.06847 0.677242
180.301 5.93959 0.656085
178.928 5.55499 0.651928
187.296 5.54051 0.634369
160.678 6.21407 0.729358
150.317 5.3605 0.639167
133.348 5.80298 0.713019
143.523 5.85925 0.726034
141.889 6.12913 0.77008
144.275 5.78988 0.701854
168.635 6.12731 0.768157
155.814 5.56048 0.716968
150.989 5.35905 0.680636
142.709 5.31066 0.677929
129.154 6.43893 0.843184
120.269 5.71979 0.771139
121.449 6.24422 0.827903
127.458 6.11718 0.839884
143.184 5.68434 0.797961
147.328 6.66803 0.937259
143.743 5.26725 0.722296
151.355 5.85251 0.844424
123.834 5.8146 0.843056
104.801 5.01363 0.724178
97.9109 5.41732 0.819121
111.318 5.68225 0.832054
126.352 5.50285 0.844742
126.935 5.46049 0.835384
133.769 5.90756 0.887937
143.761 6.58893 1.03371
111.315 6.12467 0.985841
99.6046 5.80638 0.931282
101.675 6.01988 0.991563
106.695 6.30562 1.0359
114.133 5.53899 0.891346
142.536 6.11014 1.00984
103.238 5.2849 0.88865
123.537 5.84372 0.992737
115.649 6.29095 1.08982
101.771 6.12625 1.06684
84.1956 5.50869 0.947509
79.0214 5.69114 1.03336
96.7006 5.66198 1.03163
100.912 5.57775 1.01868
111.419 5.39085 0.973224
112.892 5.92856 1.0868
104.708 6.19179 1.12246
91.9166 6.35278 1.17285
88.6494 5.81601 1.1624
87.7419 4.85325 0.896909
92.1371 6.10964 1.1798
101.425 5.7795 1.16694
98.4226 5.13374 1.01795
114.819 6.47554 1.2585
103.103 5.05042 1.04638
95.0866 5.9563 1.20778
82.3871 6.09217 1.20836
83.437 6.11115 1.26364
75.0522 5.52629 1.18259
97.4249 6.18336 1.30546
99.841 6.43019 1.3768
98.9122 5.20785 1.15544
106.471 6.03346 1.30248
87.3355 5.49378 1.17295
87.3967 5.43862 1.21515
70.7053 6.43829 1.43045
66.4474 5.41564 1.26469
86.9002 5.58429 1.27798
83.3949 5.44703 1.24096
96.6221 6.55014 1.48206
88.8282 5.99645 1.39126
81.177 5.12732 1.2094
73.249 5.32646 1.27149
68.8882 5.86713 1.40748
62.8518 5.17724 1.23383
70.2507 5.28973 1.31995
77.9264 6.45435 1.58995
93.0826 5.93684 1.46529
95.4994 5.26102 1.34992
86.7271 6.48601 1.6144
67.1122 4.90672 1.27489
64.4399 5.32949 1.39439
64.5311 5.35834 1.3858
61.5885 5.34626 1.35855
78.1961 5.97632 1.56734
71.7586 6.63435 1.75581
89.8289 5.54243 1.47799
83.5395 6.39002 1.66664
66.3171 6.37823 1.77003
63.9223 4.76023 1.28153
54.7475 5.36932 1.51746
59.3061 6.69767 1.83109
60.622 5.51362 1.52236
72.0315 6.21021 1.80355
76.6356 5.34084 1.48562
73.2713 6.34596 1.85723
65.5847 5.785 1.61221
66.9923 6.44464 1.8942
58.1634 6.37784 1.89672
55.6773 5.83039 1.72209
62.0888 5.75388 1.71676
63.1698 5.05703 1.53892
74.1493 5.09579 1.49844
69.0526 5.15649 1.55087
66.8204 5.23903 1.60148
57.258 4.85001 1.5253
48.7925 6.4354 2.03275
53.6432 5.47506 1.68689
49.1196 5.10011 1.58293
60.9673 6.71584 2.1583
67.4246 5.45601 1.70809
72.4243 6.46166 2.07061
60.7457 4.86522 1.59942
56.3678 5.72315 1.96197
49.9905 5.55856 1.85935
49.7528 5.61984 1.84376
51.3952 6.81268 2.39292
57.3158 5.62283 1.82754
66.5045 6.28947 2.07899
67.9906 5.37527 1.86593
65.9467 6.41676 2.19095
57.087 6.20205 2.17825
51.3537 5.56497 2.0697
44.3636 5.79283 1.99353
46.6604 6.6845 2.31298
46.792 5.31302 1.86558
56.8769 6.06622 2.22423
67.9492 6.01677 2.16808
68.661 6.08778 2.17838
56.9923 5.22942 1.90629
48.7905 5.51753 1.99953
43.7387 6.39002 2.39325
36.4378 5.25611 1.98086
47.1799 6.76123 2.55192
48.5782 6.54551 2.44852
62.5047 5.93607 2.35891
64.0728 6.49841 2.49966
54.8368 6.01841 2.37315
50.2717 7.17221 2.80172
43.1115 5.36792 2.14284
47.1338 6.62964 2.52207
39.303 5.83654 2.28426
47.5956 6.61508 2.76689
56.445 5.74969 2.28205
58.0096 5.59801 2.34757
61.2965 6.68444 2.78348
49.1259 5.22826 2.12816
43.6365 5.86012 2.586
37.2883 6.34744 2.5893
39.2123 5.96968 2.49027
52.4721 6.08956 2.58014
48.9067 5.80853 2.56002
56.0236 5.75529 2.34741
53.1515 5.30655 2.41582
47.5035 6.03339 2.60146
40.0778 5.497 2.32511
37.0899 5.58966 2.43884
35.6473 5.56856 2.45298
44.0467 6.55074 2.8355
42.9694 5.93132 2.65949
48.1581 6.08046 2.70132
52.6489 6.79171 3.17841
53.6372 7.11816 3.23072
37.7984 6.4914 2.88787
35.34 6.59026 3.10276
35.665 6.38369 2.91178
36.6843 6.4647 2.9508
44.3939 5.8312 2.76408
45.6746 5.48717 2.57446
45.4974 5.50255 2.82432
53.231 6.11458 2.8363
39.7124 6.23035 3.16846
39.8323 6.11367 2.79325
30.4536 5.25043 2.60702
37.2417 5.88083 2.88158
40.8912 5.56493 2.70874
45.1463 6.5789 3.19112
51.1589 6.346 3.23391
48.7587 6.13823 3.17849
48.0774 5.88298 2.95494
43.2851 6.60092 3.08551
32.9183 5.68584 3.08956
35.8996 6.21021 3.11841
31.5522 6.21484 3.2564
38.5523 5.65193 2.8444
43.9673 6.24 3.1241
42.4299 5.94921 3.25664
42.0717 5.59028 2.95901
34.4457 5.60576 2.77407
31.9108 4.90907 2.68165
33.2903 6.06047 3.27569
32.1352 6.52637 3.52017
39.0841 6.57393 3.4588
44.7994 7.44635 4.06248
48.3724 6.64976 3.64642
43.8672 6.20316 3.25223
34.3131 6.55688 3.71899
31.714 5.71414 3.19497
26.3831 5.81442 3.30995
32.0505 6.30816 3.67295
35.745 6.70779 3.61512
45.401 6.35835 3.50861
44.2565 6.02961 3.60698
43.6398 5.66963 3.26038
37.2585 6.12836 3.54783
29.8164 5.57034 3.28032
30.764 6.50666 3.7655
27.7907 6.35447 3.72017
28.1433 5.37533 3.24096
33.475 5.51959 3.22122
38.4482 5.7259 3.51312
41.6404 6.12367 3.63939
34.8298 6.53075 3.95975
31.7985 7.15781 4.48568
26.1238 6.60146 3.91349
25.1516 6.33644 3.99264
30.1304 6.82802 4.17714
30.0455 5.78851 3.4058
38.4741 6.53779 4.16128
36.1269 4.83392 3.12428
37.1242 5.62535 3.45153
30.5993 6.53624 4.22579
28.5189 6.40487 3.92259
22.4156 6.7789 4.43941
26.3472 6.17303 4.03901
31.6706 6.47258 4.1875
38.6882 6.55801 4.34206
40.4384 7.04767 4.31478
35.347 6.05374 3.98138
30.9475 6.87863 4.57385
26.8824 6.14212 4.20847
23.4591 6.2211 4.08203
23.6121 5.91558 3.82053
25.0419 5.92006 3.81083
32.3316 6.05855 4.12054
36.001 5.70664 3.81753
35.1474 5.88977 3.92521
31.6413 6.58062 4.53928
27.5355 6.17498 4.21878
24.8517 5.90893 4.1301
21.1901 5.34613 3.93734
27.0516 6.41637 4.24536
32.723 7.52601 5.10332
35.9286 6.64246 4.87588
37.9665 6.55471 4.36301
33.8842 6.79634 5.06571
28.6555 6.01862 4.15824
22.3937 5.54577 3.97639
20.7846 6.37658 4.49139
23.5427 6.50569 4.61618
29.6254 7.01951 5.22853
32.8434 6.30386 4.35749
32.8648 6.08344 4.76319
33.8414 5.95464 4.28724
29.6503 6.5 4.62752
27.4261 7.27093 5.52724
23.832 6.66563 4.92368
24.1587 7.50949 5.64449
24.5647 6.51529 4.67211
27.7749 7.15059 5.37253
33.2839 6.95609 5.4244
29.1504 6.0268 4.46902
28.6754 7.20825 5.66082
21.9015 6.09428 4.51655
19.9867 5.47629 4.54647
20.3214 7.29282 5.73298
22.6043 6.17091 5.12646
31.7867 6.0251 4.50663
32.6612 6.669 5.15477
31.9485 5.44063 4.10158
30.6779 6.49536 5.2989
27.2202 6.13824 5.01869
23.1127 6.00678 4.82828
20.2668 5.77134 4.36772
23.0075 6.18953 5.19835
26.9074 6.41202 5.10339
27.5401 5.88128 4.84453
32.4145 6.82942 5.33617
27.8532 6.24315 5.07914
27.8916 6.23828 5.07953
20.1078 6.00994 5.39613
16.8508 6.40507 5.50514
19.1961 6.03874 5.06411
23.4547 6.65978 5.31653
25.282 6.40968 5.65322
25.7044 6.21572 5.08117
25.436 6.06165 5.00852
24.3512 6.45936 5.27066
21.0659 6.12892 5.47333
20.5271 7.55203 6.40545
19.7805 6.36127 5.6135
21.0034 6.31267 5.66387
23.7252 6.5115 5.63724
29.8648 5.73646 5.1641
29.6731 7.12467 6.10743
28.1267 6.37626 5.50736
23.3225 6.23432 5.54368
19.0365 5.51238 4.89017
17.9257 6.65458 5.94293
20.729 6.9659 6.15622
22.7356 7.01587 6.3817
24.5469 6.51545 6.08258
28.0715 5.94006 5.44753
26.1186 6.51751 6.09108
23.4766 6.63728 5.92206
20.343 7.14638 6.33327
18.6112 7.02668 6.51938
15.9703 5.60145 5.60471
21.1767 6.97495 6.53566
23.5239 6.41173 5.90274
27.5426 6.46853 5.896
24.8283 6.26372 5.663
22.0367 5.74465 5.47613
19.9962 7.11796 6.87581
18.1609 6.6158 6.62443
18.3116 5.17409 5.03705
17.2497 6.84955 6.20604
23.1144 6.43833 6.54735
26.115 6.32129 5.75161
27.1333 7.16493 7.04065
26.2721 6.30063 6.21557
20.9544 7.13001 6.88887
17.747 6.032 5.92468
16.0936 6.37659 6.63541
19.1352 6.86394 6.39748
22.3923 7.52778 7.86601
24.6073 7.53408 6.94318
24.3362 6.70199 7.29106
24.6742 6.44824 6.66674
21.4388 6.8026 6.4181
16.9312 6.10266 6.45961
17.4979 7.80546 8.07255
18.2521 6.63153 7.0162
20.2581 7.029 7.656
24.9068 6.91215 7.14423
26.052 7.11406 6.77551
22.8975 6.89852 7.15362
21.8503 5.6787 5.99214
19.7161 7.20638 7.66171
16.8491 6.94704 6.97491
16.122 7.07837 7.37239
21.0473 7.27429 7.55369
24.6826 7.99411 8.41273
26.3274 5.81626 6.4791
26.5456 6.52855 6.51558
23.9728 5.97977 6.29525
19.2728 6.95182 7.57206
18.5491 6.57356 6.97425
15.6116 6.81231 7.42417
16.4249 6.36851 7.01003
20.2012 6.94311 7.35587
27.6776 7.38915 8.16198
24.9812 7.65003 7.86752
22.9821 7.78671 8.81789
17.3019 6.01401 6.64493
16.3946 6.94231 7.94908
15.202 7.09771 7.73683
14.2259 5.74887 6.80923
19.1401 7.16055 7.82103
22.0007 5.52789 6.35738
22.2299 6.95924 8.00067
20.2602 6.04444 6.91357
18.763 6.20431 6.86323
16.9888 6.9784 8.0285
14.6206 6.448 7.68056
14.4846 6.73762 7.61975
19.5647 6.19042 7.56933
20.9253 8.16862 8.9365
20.6973 6.62754 7.38656
24.4839 7.82606 9.25942
23.8577 6.62012 7.66548
16.1062 6.86537 8.00915
14.5126 6.70286 7.93952
11.9345 7.1458 8.3145
15.0271 6.03764 7.0571
19.6549 7.82174 9.5104
20.0602 5.88633 7.27637
20.3898 6.77305 8.41642
19.0096 7.02765 8.25903
17.1433 6.41922 6.88649
14.8249 8.91057 11.1509
13.4166 6.84223 8.19513
15.7914 7.99451 9.40034
17.4695 7.26805 9.01983
17.5038 6.60249 7.95196
19.3496 7.15649 8.86784
18.6656 6.63131 7.98164
16.5284 7.08661 9.00695
14.7371 7.14688 8.99608
13.3951 6.50928 8.41033
16.0094 6.80515 8.19911
15.4593 7.91861 9.38409
19.2405 6.98999 9.2784
21.2328 6.02284 7.91278
20.9461 7.08304 8.66429
19.7733 6.93461 8.97778
17.6131 6.99941 8.4282
15.1089 8.12743 10.4864
14.063 6.51427 8.09906
13.7512 5.63686 7.28328
18.2426 6.67309 8.45882
18.2546 7.17072 9.75086
21.1453 7.74192 9.55635
17.6914 6.62121 8.88665
16.5744 6.62579 9.42023
14.8103 8.20519 10.202
12.9734 7.37146 9.98626
14.7523 7.59175 9.71559
15.8574 7.28775 9.57631
16.3082 6.14387 8.30562
19.415 7.59407 9.78276
19.7725 8.26294 11.7856
17.1503 7.52157 9.37487
14.1456 7.66179 10.6966
13.7042 6.66696 8.92263
13.425 7.15239 9.77992
14.9272 6.23721 8.43544
17.9705 6.85988 9.08812
19.2977 6.28474 8.68473
17.6225 5.89293 8.06298
15.733 6.74397 9.86382
16.5554 7.46019 10.6967
13.3468 7.76186 10.2813
12.9305 7.54355 9.96107
13.0722 6.91027 9.74841
17.6988 8.00106 10.6096
15.5045 6.43419 9.30394
16.5455 7.01284 10.0007
16.3547 7.34781 10.2171
14.829 7.08448 9.79561
12.9295 7.01277 10.0577
12.2473 6.9385 8.83481
13.8255 8.4278 11.8367
13.1435 6.60151 9.70676
17.0531 7.26206 10.5017
18.7026 7.34585 10.5186
18.009 8.1079 11.744
15.0928 7.6445 10.6687
12.5316 6.01754 9.32028
12.4028 7.11791 10.4022
14.0958 8.28242 12.6715
14.6031 6.59523 9.66128
16.8938 6.99548 9.85457
19.6981 6.74051 10.1226
16.5636 6.18613 9.02859
15.8872 7.15528 10.3936
12.8454 6.62318 9.77553
12.4533 8.01483 11.4062
12.3268 7.31122 11.0432
13.6176 7.19503 10.2444
13.9013 6.14707 9.73764
16.1257 6.82391 10.1558
16.8663 7.4817 11.0439
15.4863 7.35717 11.0357
12.0862 6.65496 10.6141
10.3754 8.5001 13.5123
11.6625 6.93541 10.6129
12.8393 8.07915 12.2355
14.1512 6.37402 10.2995
14.5397 7.97566 11.2316
16.8192 7.44536 11.7215
14.0876 7.14863 11.845
15.1491 6.99118 10.2945
12.4656 8.26906 13.0569
9.43868 6.63043 10.6828
11.1466 6.83213 9.84439
14.1447 6.65582 10.369
15.0561 7.2106 11.3855
16.2344 7.13402 11.1391
16.0131 7.07992 11.8869
15.4156 7.72704 11.8588
13.6526 7.4996 11.4002
12.1578 7.87795 12.0259
11.9635 6.88475 10.3824
11.8408 7.09018 11.3303
14.0364 6.92066 11.0307
15.3608 6.73348 10.7966
15.0642 7.45547 12.7006
13.8534 6.48754 10.8648
11.8073 7.22559 10.5706
10.1028 6.14123 10.4663
10.0936 6.95018 11.9954
12.9046 7.14793 12.1829
12.498 8.4879 12.9602
15.2097 7.34205 11.6925
16.1595 7.56555 12.4714
15.185 7.76687 12.6612
13.2372 7.03187 12.2721
11.2756 6.99929 11.9282
10.964 7.46651 11.9466
9.56225 6.598 10.4646
12.3148 7.5611 12.9644
14.0116 6.42795 10.4177
16.5157 8.81428 14.5778
13.2061 6.86707 11.7581
13.9423 7.81872 13.3433
11.8545 8.73627 15.7363
12.0847 7.51728 12.927
10.0207 6.72941 10.8281
10.8469 8.08141 13.8459
11.6927 7.15365 12.0334
14.6695 7.67156 12.9022
14.165 6.58394 11.0617
10.9594 6.32171 12.4573
11.0809 6.84828 11.4409
8.90074 7.22706 13.1955
10.2782 8.07672 14.502
12.7237 7.29731 13.0718
13.0741 7.35073 11.7067
15.301 8.26588 13.8205
14.1087 7.74095 14.6478
12.5991 7.25451 12.7025
12.1778 7.46252 13.5011
11.154 8.91597 15.577
10.4752 8.32876 13.8677
11.7151 7.65595 13.5645
11.3763 6.79691 11.3758
13.79 8.27823 14.2681
12.7289 6.37011 12.1686
13.2965 6.89775 13.2344
12.5642 7.23453 12.6484
11.461 7.60778 12.5572
9.41765 6.92403 13.0301
8.96869 7.74951 13.8279
10.2876 6.77636 12.9257
13.5311 9.12306 16.1438
12.1297 8.12774 14.8764
12.5248 7.3524 13.993
12.9572 8.58206 15.3959
11.2877 7.03964 12.317
8.64745 7.47649 14.0123
10.0698 7.76458 13.5653
11.4374 7.9145 14.521
11.5311 6.98109 13.1638
14.1079 6.2916 12.3805
13.9787 8.00383 15.3101
11.3876 7.14259 13.9104
11.6141 7.88446 13.7238
10.8045 8.44179 16.889
11.0919 9.16854 17.1143
11.8707 9.316 17.371
11.438 7.15183 13.1941
11.6874 7.26908 13.8322
13.4941 7.57309 14.2512
12.5625 7.58026 13.8115
11.376 7.40161 14.7536
10.7946 7.77109 13.6038
8.4501 6.30295 12.7706
9.32438 6.97532 13.0209
9.83601 7.81495 15.7531
12.4074 7.90887 13.9632
13.1728 8.42762 16.5927
11.2724 7.11347 13.95
9.31374 7.28885 13.7049
9.18189 7.10979 14.7147
7.69884 7.42534 14.4615
8.95977 7.39333 14.5177
10.8588 7.35359 13.3374
11.7963 7.89727 14.5567
12.9044 7.76886 15.6666
13.2108 7.6105 15.3344
11.2247 7.69333 15.8121
10.2099 8.21541 16.2966
10.2138 7.37299 15.0883
9.39915 9.04154 16.6036
8.44327 8.48675 18.7684
11.7422 8.68212 16.1882
12.2744 6.02771 11.8801
10.7262 7.48348 14.6534
9.59002 7.48113 15.051
10.8553 7.79854 16.9062
10.6809 8.25251 16.3316
9.65641 7.45294 14.7029
10.3532 9.00667 17.3271
8.44031 6.78667 17.3187
10.779 8.01188 14.7795
11.5081 9.0834 18.4548
11.4294 8.08156 16.8865
10.7507 7.6861 16.3315
9.38546 8.32602 15.4045
8.75645 8.32217 16.5294
6.99536 6.89587 16.0961
9.84607 8.56435 16.7688
12.0759 7.63958 16.291
12.8033 8.17561 16.823
12.4334 7.76149 15.7824
10.5455 7.1536 14.9023
8.55429 6.96624 13.6937
8.24784 7.26884 16.6447
8.49874 9.72494 19.838
8.49745 8.34685 18.8391
9.86592 8.50623 17.7773
9.99976 7.9693 15.8325
11.1819 8.98899 18.6755
10.5951 8.21107 18.6629
10.5122 9.66077 18.6587
10.1437 7.72633 18.8389
9.37727 9.23511 18.5473
9.44208 8.91646 19.9924
10.6769 9.42987 18.3571
10.48 8.40284 17.1396
10.4829 8.03122 18.4763
11.7933 8.06018 16.8811
10.3078 8.7553 18.3159
8.36509 8.58577 19.0035
7.66313 7.698 16.8197
7.91912 8.0223 18.7878
9.45722 8.88069 18.7855
10.3184 7.04429 14.9709
11.116 7.49581 16.9892
11.3508 7.55392 16.2128
11.5568 9.44969 20.7017
9.32957 7.76337 19.561
8.85766 8.12878 15.5754
7.19318 7.03828 16.1267
9.19293 8.72402 19.7173
9.11481 8.42344 17.5629
10.2001 8.36199 19.0624
8.73901 7.10544 15.6977
10.0324 8.8116 19.8848
8.75181 6.6494 15.9583
8.23399 7.72698 16.0087
6.60951 8.05587 18.3898
8.1806 7.4385 16.8269
9.64543 8.69105 18.3405
11.2196 8.14876 16.636
9.36544 7.19061 18.3031
9.74017 9.58031 22.2318
8.15203 7.22474 17.2635
8.46806 6.88387 15.4346
7.21056 7.77654 19.6822
8.76195 9.65479 19.0589
7.58507 8.38469 20.5901
10.5494 8.86191 19.9521
10.3059 8.32477 18.6023
10.3451 8.21807 18.2878
10.3471 8.19434 17.5976
10.1502 9.6928 21.8233
7.86702 9.66008 22.6393
7.82533 9.0142 20.4186
7.81154 7.6175 16.9364
8.08532 8.18822 20.9973
10.4354 9.26168 20.9994
9.11466 7.48357 18.7761
10.5203 8.50682 20.1507
7.78243 8.4974 18.5411
8.47253 8.9709 19.6842
7.85141 8.18584 20.9353
8.54258 7.03223 18.2007
8.93139 9.23487 21.1621
8.68461 7.7163 18.0578
9.93884 8.55696 20.0193
10.5421 8.28117 18.7726
8.38469 8.1427 20.5977
7.99343 9.42955 22.2752
8.08969 9.17486 21.9284
7.67234 8.02928 19.1215
9.25477 8.03069 19.8559
9.41393 8.7344 20.2669
9.97371 7.97653 18.316
9.86764 8.5953 23.2614
11.1604 9.80434 21.7703
8.83108 7.98681 18.6066
7.38843 8.87402 21.6884
7.69691 8.5134 21.1742
8.26533 9.22376 22.5011
9.23399 9.35359 23.62
9.41716 8.39774 18.5556
8.37964 7.52651 19.7811
8.62264 7.92141 18.808
7.93853 9.01999 20.2724
6.81353 7.23685 17.9276
6.51347 8.1581 20.89
7.50988 8.6214 20.4522
9.09998 7.993 20.3923
8.84695 7.924 19.436
8.88472 8.77482 22.06
9.62454 8.55828 19.1108
7.33334 6.80199 17.1044
7.81378 9.98415 24.7457
7.02087 7.71985 20.7803
7.08203 8.00353 20.7128
7.51057 8.73108 19.203
8.82504 8.91494 19.7008
8.84239 8.55255 25.4844
9.35197 7.93185 17.9495
7.86192 6.69052 18.8251
7.48084 9.1632 25.4389
8.52244 8.67479 21.0084
7.24646 8.88958 19.4135
6.94934 7.28373 19.4937
8.02464 8.32526 22.1878
8.56261 7.15948 17.8533
8.64543 9.21851 23.8243
9.47632 9.57574 21.8855
7.82373 8.41474 23.9459
8.10347 8.59389 22.7677
7.97007 9.41989 21.9728
8.11211 8.60738 22.3454
7.60411 7.30516 17.5442
8.20168 8.82989 22.6312
8.70788 8.40652 23.1209
7.89358 8.09369 22.1761
7.93342 8.13169 21.254
6.65583 9.03606 23.0094
8.09647 9.09538 23.2652
7.46731 9.33366 24.1759
7.26937 9.41258 22.467
8.15095 7.73082 22.6199
9.16688 9.31664 22.9896
9.44157 9.63859 23.4772
9.12462 10.2674 28.8391
8.24045 9.17929 24.4911
7.52833 7.79528 22.6918
7.7624 9.24737 26.0168
8.19227 9.17396 22.1993
6.50783 8.76234 22.9867
6.7388 9.00212 24.5303
8.3101 8.07455 19.9662
7.59924 8.29681 22.4752
7.95347 8.6778 22.2726
7.12707 8.88181 25.9297
7.70826 8.09263 21.4727
7.23966 7.94838 21.2229
7.70967 9.25734 26.1213
8.99928 9.2767 21.5428
7.07502 9.37512 25.4141
7.88039 7.97427 18.517
5.91623 8.65451 25.9896
7.55069 8.24092 21.7711
6.81293 9.82987 25.3517
7.27931 8.47952 22.2966
7.53029 9.08525 24.2385
7.38957 7.12629 20.8771
8.82281 6.78664 19.7488
8.44022 9.37298 24.5996
7.52364 8.00027 21.0598
7.12415 7.45456 20.7148
7.53682 6.66056 18.4853
7.00968 9.01553 24.2371
7.92862 10.2014 26.3147
7.02105 8.89403 27.0793
7.96009 9.01609 25.9917
8.09413 8.6192 24.3001
7.36802 8.29767 22.9156
6.9919 8.9226 21.0902
7.20241 8.80883 24.7686
7.34381 8.61256 23.5483
8.15637 7.98975 23.9066
7.91394 10.078 27.2961
8.80454 9.40855 26.42
7.42485 9.00477 24.4706
7.93668 9.58351 26.8573
7.68759 8.86051 26.0992
6.55437 8.36214 25.5478
6.18925 9.8797 26.2126
7.62347 10.4383 27.3393
6.83509 8.28932 24.7583
8.39232 8.54255 24.5425
8.13389 8.77456 23.6424
7.94836 8.56664 23.6088
7.43496 8.86936 24.4607
6.62864 8.51994 23.4632
6.68858 6.80117 19.9184
7.05708 8.33463 23.738
7.09632 8.52665 23.6797
6.71228 9.27216 28.8773
7.77241 9.82038 26.7954
7.28252 8.43471 25.8661
8.00022 8.8226 22.7296
7.364 7.87424 20.4878
6.63697 9.31527 24.8907
7.27144 8.32108 26.0647
7.95306 10.482 29.1501
8.38117 10.4868 26.403
6.82109 8.20632 27.16
7.17958 7.66108 22.3524
7.38848 8.385 24.5108
5.90853 7.70238 25.1089
7.12536 10.0224 28.4462
7.10397 9.43109 24.4543
6.38208 8.5011 25.3975
6.66414 9.84909 27.6495
6.98314 8.49285 23.2894
7.6409 8.94137 25.0578
7.33454 8.32319 25.4471
7.06126 9.39254 28.1632
7.16017 9.42555 28.1136
7.82041 8.27887 24.8377
7.25721 8.90261 28.2227
7.39905 9.1792 22.9299
6.20548 7.21123 22.3826
5.90393 8.5956 24.5517
6.7386 7.64953 24.606
7.21668 8.01331 21.8066
5.92055 8.34947 25.8911
7.65278 10.0409 28.1791
7.08275 8.92896 27.6903
7.02801 8.81414 23.8089
6.37575 8.552 28.6682
8.40981 10.4566 27.0081
7.20113 8.34577 23.2849
6.89473 8.42798 27.0436
7.01892 8.57705 24.6601
4.99116 9.9407 29.8044
7.46063 9.38411 25.8987
6.69977 8.62879 24.4187
7.00214 9.68896 30.4253
7.74094 9.37304 27.2895
6.68923 9.83901 32.1984
7.68856 8.99672 24.9789
6.40156 8.82036 29.0994
7.15745 8.04411 25.1781
7.62116 10.72 29.129
5.98415 8.00026 25.9816
6.93137 9.80066 28.223
6.64599 9.48813 27.0706
5.73142 8.53584 26.2828
5.92135 8.69229 25.1847
6.68588 8.55559 26.2306
6.75351 9.12922 31.1297
6.92055 7.81493 24.9689
7.38676 8.33255 28.2209
7.23044 9.75204 26.7059
7.33553 8.74152 26.1354
7.22949 9.36099 27.7047
7.19031 7.99109 24.7116
7.19926 8.69529 25.0028
6.11677 8.2342 25.8267
6.26672 8.86687 27.2776
6.68869 9.7838 29.8699
6.12592 9.54376 31.9989
6.75161 9.24713 26.5965
5.35908 8.32319 26.4298
5.97302 8.77139 27.7408
6.94255 10.7877 32.9286
7.6256 9.9928 32.5027
6.98064 8.02373 27.3425
6.63537 8.79876 27.3008
7.48912 8.99405 25.7861
6.82497 9.20572 31.6314
6.96407 8.37877 27.3294
6.50416 10.3994 29.0013
6.30446 9.43934 33.0641
6.35725 9.87099 32.8447
7.21591 9.98019 26.4706
7.34837 9.53957 30.3091
6.6446 8.63593 27.4545
6.19112 9.03934 30.2975
6.51225 8.5647 28.0934
6.96719 9.75045 27.1662
6.08236 9.02719 30.0218
6.1549 8.86215 32.2359
6.79953 9.19861 27.3112
6.63159 9.06448 29.3273
6.22221 8.44011 25.0207
5.64328 7.93376 32.4164
6.26249 9.6239 24.8701
5.66122 9.62287 34.6824
7.17084 9.74856 29.7644
7.1824 9.26002 27.6372
7.201 10.0082 34.639
8.31244 9.30591 26.5271
6.73067 10.52 33.8049
7.45206 10.5888 33.25
7.63604 9.74963 32.0178
5.80766 8.38668 27.4625
5.83218 10.7676 36.7383
6.95952 9.65763 26.9012
5.30595 7.7796 28.8773
6.73456 9.24638 29.8869
6.81152 11.4435 36.8287
7.18901 9.72115 27.368
6.32009 8.95025 30.3535
6.62694 9.45721 32.9429
6.68983 9.93624 29.1112
5.75163 8.92195 27.1811
6.98222 8.46397 30.3222
6.65691 11.7017 35.4734
6.33918 10.0788 30.6485
5.75215 8.34511 28.5441
5.79476 8.04431 31.056
6.34065 9.96739 33.3325
6.49067 9.03636 29.4973
6.50551 11.112 31.5778
6.03236 9.68509 31.6511
6.24644 9.63373 32.1497
6.34452 10.1676 35.9013
7.55782 9.41479 29.8973
7.25205 8.6874 28.9512
6.6275 9.0765 31.9777
6.07823 8.81438 29.1788
6.25073 10.2309 32.3407
6.77545 10.7215 29.4662
5.94774 10.1883 35.8572
5.33589 10.2828 30.0922
6.06215 8.96093 34.538
6.30391 10.3155 33.719
6.19335 9.97108 34.5013
7.26443 9.32853 33.2908
6.90307 9.4198 33.0919
7.20343 9.21327 34.1492
7.23503 10.4204 29.8973
6.28783 8.93523 29.4073
6.39506 7.60136 29.8926
6.44124 9.1 29.0213
6.29462 8.83763 27.9136
5.65746 8.64634 29.9559
5.82705 10.5852 33.3109
6.22729 9.47051 32.0397
5.90572 10.8669 35.723
6.23425 9.3466 29.6611
7.07025 9.00906 28.5359
7.02474 7.84751 31.364
6.90033 11.4933 36.0979
6.90185 8.93303 31.3094
6.16594 10.693 34.2901
6.16103 10.2574 33.4654
6.54004 8.93261 28.8347
6.08581 10.8404 36.1528
6.79628 9.97356 39.1643
7.48739 8.33503 26.2019
6.52367 9.27635 32.6652
6.96777 9.45634 34.347
6.6298 9.32268 31.5464
5.53148 9.30322 33.3989
6.24823 9.86831 37.367
6.63091 10.1702 30.1254
6.52216 8.57407 30.5865
6.96896 9.90975 33.9041
7.01997 11.05 34.5283
6.91816 8.48745 29.8056
6.04716 10.1295 34.4987
6.0591 9.40678 33.4743
6.12586 9.2573 31.2178
6.17438 7.73768 30.074
6.65228 10.6285 34.225
7.16903 9.86781 34.0303
7.39064 7.89214 30.2926
8.28717 9.34573 31.1187
7.26167 9.00623 30.6087
6.18298 10.2815 33.2619
5.7007 9.58713 34.1453
5.46691 9.78746 31.4159
6.37691 10.3507 33.6359
5.57821 9.06406 32.0931
7.005 9.64354 32.1253
6.64639 10.8804 35.1002
5.55934 9.34244 36.6238
5.90829 10.2536 37.0464
5.85009 8.90576 32.2701
6.12589 9.88388 33.5374
7.094 10.0728 35.1906
6.57195 9.361 29.9891
7.13251 10.0837 33.3418
6.75582 10.8696 37.4747
6.48153 10.0289 33.1913
5.49061 10.7991 38.7359
5.89251 9.46741 36.7107
5.73388 9.55712 30.6842
6.00436 9.96581 31.8361
6.48619 8.93477 35.4504
7.00749 9.16144 34.3035
7.19436 8.77552 33.0906
7.34308 9.79614 33.1591
6.45911 10.6312 35.4226
5.96974 10.7843 34.2642
5.50893 9.50864 32.1491
5.21703 8.87623 34.4794
5.83825 10.2217 36.5596
7.08324 10.7327 36.2175
7.13588 10.2811 39.6423
6.23247 9.74723 34.5583
6.7894 10.5628 38.4493
6.29279 10.8709 34.9231
5.57857 10.3883 42.2639
6.61428 11.0159 34.5528
6.65026 9.5073 39.3837
8.06773 11.1978 35.4358
6.77935 9.04977 36.8987
6.73037 11.2646 37.1029
6.65334 9.66951 35.8306
6.58539 10.0931 36.8822
6.11708 9.96596 38.9487
6.32976 11.9685 41.3529
6.73992 11.1488 42.9791
7.31367 11.5557 37.8062
6.46336 10.4968 31.2474
6.53002 10.0238 37.8912
7.82328 10.798 37.4416
5.80916 10.3073 34.6316
6.0074 9.4482 37.0574
6.07215 10.0709 34.8159
5.09603 9.23112 33.4979
5.63061 9.57371 39.9238
7.03934 10.4638 35.3654
6.26268 10.0536 42.8372
7.87513 11.4529 41.0806
5.70929 11.6581 35.038
5.75843 10.7507 41.0896
5.67714 10.3461 35.8019
5.69759 8.30004 34.5148
5.97826 9.35534 32.8619
7.08506 8.75657 32.8812
6.19628 11.3585 36.8089
7.4985 9.44158 35.2314
6.43768 9.51512 37.2209
5.88971 10.1338 36.9511
5.2547 9.03426 33.4291
5.6596 10.1128 36.5206
6.03858 10.5452 36.959
6.81764 8.42425 31.3771
7.4593 10.419 38.0791
8.02192 9.4696 34.8438
6.48799 10.538 37.9976
6.02528 9.83002 32.6253
5.44994 9.20191 34.7963
4.98272 9.48084 38.8301
5.75646 10.0631 34.7815
5.81723 10.0492 38.1337
6.04218 10.7127 40.6353
6.99415 9.29914 34.7897
6.15645 9.54869 35.9482
5.92249 12.0165 42.9793
5.66039 8.46406 33.3216
5.26922 9.87625 38.7406
6.4303 10.835 32.8907
6.41471 8.55552 31.4206
7.01345 10.6785 39.9544
7.32649 11.5789 43.3611
7.40989 12.1311 38.7972
6.20301 10.6141 39.1428
5.86219 10.165 38.9455
5.83107 9.21528 35.0843
4.92641 8.28748 33.8363
5.68121 10.0755 33.4001
5.95971 9.3807 37.6351
6.73667 8.64734 32.5081
7.34728 9.30132 33.4746
6.86657 9.12191 34.8282
5.67915 9.0767 36.7903
5.51603 10.5716 35.5159
4.90809 9.41264 33.8521
5.8107 10.2596 38.2437
5.58261 8.89285 36.283
6.15224 10.3805 39.7116
6.35052 9.41417 38.9419
6.12459 10.9111 38.4063
5.87974 10.1273 34.177
4.67261 10.5914 36.9627
5.18866 10.0184 36.8911
5.48395 8.66233 33.6
6.69832 10.3403 41.5044
6.10138 9.23268 33.9487
6.75584 9.81661 37.3015
7.43988 10.0424 33.3712
6.57918 7.99934 35.5959
6.03478 9.8388 39.1588
5.56967 10.8431 40.9519
6.06411 10.0095 34.6342
6.27258 11.6441 47.5738
6.5365 9.69236 34.0167
6.45222 10.4962 40.4622
7.51402 10.504 42.7421
6.45085 10.6035 40.2993
5.98508 11.233 44.5805
6.33903 10.5073 37.9813
5.41376 9.56946 31.7947
5.17039 10.8515 44.8753
5.94651 10.6795 36.933
6.64631 9.47959 38.2338
6.65839 10.2802 39.518
6.36659 10.0476 35.004
5.83018 9.77984 37.2043
5.67854 10.0605 43.2135
6.27912 11.201 37.4573
5.5377 11.0358 38.451
6.86365 8.97632 36.3777
6.9533 10.9315 45.5112
8.37856 10.1332 37.5589
7.39496 9.12764 31.6487
7.58313 9.91357 39.4352
5.25193 10.4882 42.0415
6.32893 10.181 35.3495
4.98323 9.84569 42.508
6.44193 9.19466 31.9043
6.95388 9.42161 30.7888
7.07871 8.95293 30.2933
7.0153 10.3105 40.3104
6.36712 10.565 41.2943
6.66849 9.55721 39.069
5.35856 9.52019 36.4001
5.34308 9.57581 38.7722
5.63229 10.4862 42.366
6.69438 8.55716 30.4582
6.16608 11.6286 42.6784
6.88467 10.1212 43.7806
6.88083 10.1854 34.6735
6.41868 11.4089 45.1564
5.5077 9.22692 37.1733
4.3564 9.8353 38.4324
5.61593 9.84716 39.248
6.30426 12.442 41.5578
7.24224 10.3289 44.2701
8.34844 9.62945 33.1984
7.10203 10.2875 38.2532
6.48042 9.48884 39.2105
5.83422 10.8678 41.0988
4.96876 10.5929 42.3705
6.14103 10.68 41.2414
5.81931 10.5276 35.0449
6.53144 10.7031 43.2308
6.95811 9.49334 40.056
6.7936 8.97901 29.2603
6.03792 7.43338 33.5188
5.38358 9.39873 38.4439
5.10137 10.4228 43.6776
5.76649 9.05431 34.6859
5.17532 10.5991 36.0054
6.06262 9.65487 43.2025
6.89158 9.396 30.1238
6.06236 9.45752 38.6234
6.47946 9.61333 40.2857
5.83899 10.5058 37.3003
5.49307 10.7821 40.3279
5.78169 9.3328 40.0412
6.25221 10.3854 39.7203
6.81709 9.94011 43.1103
6.92273 11.602 35.2179
6.71721 8.66322 37.9158
7.02928 8.28238 39.6951
6.5646 12.666 45.7891
6.17882 11.6633 42.6082
5.15714 11.0783 39.7194
5.51538 11.3195 46.3148
6.34796 11.3402 41.7325
6.3642 10.9665 38.8365
7.07507 9.50999 39.5919
7.46147 10.8322 39.3688
7.2744 10.0173 35.9274
5.66589 8.85798 34.9445
4.59949 8.62161 36.6123
4.81387 11.0203 47.4796
5.87563 10.6034 41.5136
6.89944 9.91631 35.4151
6.33971 9.54877 38.6252
6.57281 10.2872 36.389
5.8268 9.31 36.9221
5.33837 10.4148 40.6224
5.21037 8.76229 31.8723
4.53045 8.76369 42.2814
6.58436 10.6767 37.6993
6.40362 9.47716 35.3756
7.3851 10.3866 40.4518
8.17174 8.56625 38.7518
8.14541 9.90372 36.5832
6.33504 12.7153 43.7908
6.23074 11.4331 44.5868
5.26161 9.92119 45.0756
5.45953 9.81226 40.599
5.64134 11.4913 44.4816
6.78431 10.2155 37.7689
6.91538 10.5223 41.1771
6.73655 9.96263 39.8079
6.17342 9.99514 33.7265
5.58078 9.6079 44.7103
5.59711 10.1152 37.1581
5.77666 10.9231 37.9517
5.9104 10.4492 41.2655
6.04357 10.6241 41.4629
7.02233 10.2279 41.2446
7.48155 10.8624 38.9861
5.76248 10.9998 48.9366
6.30403 10.6831 40.4586
5.27374 9.97516 40.1335
5.09694 11.0693 44.2756
5.52479 9.60428 38.4965
6.90076 11.8469 45.602
7.89876 10.2829 44.9309
8.28644 11.6719 43.7849
8.15644 11.7881 42.1242
6.80066 10.2192 42.3108
6.36483 9.48534 34.8771
4.82331 10.5086 41.0885
4.58649 10.4947 42.5976
5.14307 11.1414 46.8969
6.89462 11.4151 35.826
6.44322 8.82326 36.3296
5.89606 9.17022 39.5597
6.19063 10.2959 47.2581
6.12241 13.0786 44.8977
5.13058 10.7751 41.9708
5.5668 11.2645 44.1598
5.6014 11.0503 41.1537
6.20537 9.58444 42.9294
6.91917 11.5091 43.432
7.22372 9.53952 33.5228
6.44252 8.82089 37.5694
5.48067 10.37 44.7022
5.37584 9.82115 47.5117
5.62251 12.3989 43.7978
6.14489 10.6779 41.5822
6.7594 10.7891 44.697
7.8737 10.5883 42.6842
8.81446 12.0853 42.2084
7.51268 10.3692 44.4356
6.48776 12.0633 42.029
6.15241 10.789 45.3007
5.81863 10.9293 41.9128
5.50758 9.51301 37.4032
5.92016 8.91608 37.7884
6.36263 11.4858 46.1858
7.14487 10.0542 38.4866
6.45669 9.46789 37.4402
6.0802 9.11681 38.2675
5.28565 9.19866 34.4336
4.72009 9.22052 42.6838
5.31871 10.5755 40.3701
5.7818 9.38527 39.1709
6.4482 12.1186 44.8367
7.23102 9.72439 40.8746
7.24412 11.0103 54.127
7.19318 11.9309 41.7929
5.98846 10.7687 40.4054
5.67677 10.3139 42.4269
5.30799 10.0979 36.9404
4.99657 10.64 37.2147
6.60365 10.0462 43.333
6.92836 8.66967 35.9736
8.15434 9.24837 36.8459
6.68843 9.39434 33.2825
5.7765 9.24189 39.8798
5.65461 11.1564 44.6418
4.78792 10.7995 40.301
5.42182 9.1356 37.3062
5.78869 10.6523 39.2867
6.26021 10.8041 43.3971
6.78963 8.88249 38.617
6.35505 10.7239 36.9322
5.50915 10.1647 41.3951
5.39665 9.59822 39.0181
5.01422 9.78866 37.3454
4.83705 11.2345 49.687
6.62221 9.26938 40.3189
7.26753 10.2757 40.5602
7.1761 10.0507 40.0266
7.69516 9.66656 37.8257
6.42132 10.6989 40.3579
6.18 10.9325 46.5854
5.51421 10.4303 39.7797
5.50036 10.004 37.561
5.56623 8.95636 44.1669
7.32002 12.2554 42.3163
6.88241 10.3215 42.6275
9.07145 10.1652 43.1751
7.36131 12.8222 45.1698
5.18103 8.97576 39.5803
5.64659 9.98082 39.7894
4.94556 9.681 37.9286
5.08321 9.88903 45.7161
6.13259 10.6495 43.0433
6.08817 11.728 53.4894
7.14687 11.0298 42.5017
5.83358 11.8133 41.1869
5.49463 10.8234 51.1272
5.5518 12.9785 48.6512
5.90489 12.8838 46.093
5.60131 9.3183 37.4917
5.62395 10.6126 41.3736
7.55857 10.5268 42.2508
7.28993 9.7425 42.2566
7.21458 12.1872 42.7143
6.10228 11.4925 45.1073
5.66216 9.47352 40.4011
5.63187 9.16637 41.578
5.13605 10.5791 40.0952
6.07897 9.94877 39.6902
6.51096 9.41084 35.6701
8.07074 10.657 43.3546
7.85321 12.1209 48.0577
7.10921 10.2623 39.2273
6.3196 9.26305 36.8632
4.95061 11.5374 46.7546
5.49434 11.0323 40.2488
5.2482 9.39844 39.4263
5.6371 10.7068 53.7522
7.19426 12.3542 35.3929
6.31391 0 0