# pn-170911/RbIIA-29-RbIIA-1280-1959.psd
# Power spectrum* (dif=0,1,2) (really just |FT|^2)
# NOTE: only the first half! (symmetric)
# weeks: 1280-1959
# 685 clock-days, 221 excluded
# PSD: 1441
8787.98 0.23265 0.0118069
420116 6.87035 0.00558413
2.51447e+06 49.1374 0.00655977
188141 6.9506 0.00580178
181572 10.6306 0.00612416
87327 7.41911 0.0063409
53106.9 6.99516 0.00671746
44234.4 6.31126 0.006845
32874.3 7.13789 0.00750575
26581.2 7.20017 0.00832744
19600.1 6.53057 0.00834848
15216 6.15598 0.00960248
13030.8 6.20907 0.00989145
11166.1 5.92892 0.0100338
10060.7 6.80577 0.0119876
8449.63 6.21319 0.0121618
7415.72 6.16374 0.0135154
7080.68 6.6213 0.0149643
6173.06 6.3782 0.0150332
4914.53 5.76382 0.0155505
5087.5 6.20349 0.0168127
4541.77 6.05297 0.0189656
4150.96 6.19549 0.0201515
3795.93 6.12763 0.0219975
3479.94 6.43403 0.0236166
3116.33 5.96209 0.0227239
2918.6 6.20603 0.0260565
2605.81 6.32666 0.0256221
2557.66 6.45416 0.0295752
2226.31 6.11711 0.0313504
2157.71 5.95196 0.0299455
2041.83 6.53609 0.0368893
1882.8 5.95893 0.034781
1780.09 6.23525 0.0389524
1784.88 6.56678 0.0424581
1494.73 5.81973 0.0395585
1571.74 6.31062 0.0455254
1435.64 6.50311 0.0475351
1478.42 6.64537 0.0501674
1222.38 6.02676 0.0482554
1136.38 5.6542 0.0471137
1170.01 6.03878 0.0531748
1048.64 6.19885 0.0582192
1062.34 6.22581 0.0623915
972.088 6.12987 0.0615656
930.661 5.93586 0.062016
979.648 6.55573 0.0731037
858.336 6.07046 0.0685866
799.69 5.65612 0.0680042
765.417 5.87971 0.0731662
734.301 6.16036 0.0790967
719.272 5.8975 0.0793
734.948 6.02581 0.0829389
676.959 6.08933 0.0855705
645.635 5.82619 0.0853913
678.238 6.60506 0.101005
648.534 6.53745 0.101856
594.03 6.35622 0.103351
555.181 5.92661 0.101236
541.87 6.17841 0.111874
538.864 6.56889 0.119842
525.273 6.12252 0.11304
503.117 6.08977 0.113983
508.099 6.74792 0.134334
482.633 6.26776 0.128009
484.104 6.27367 0.133002
447.553 6.06624 0.129231
437.698 6.33254 0.139725
440.296 6.13877 0.139895
410.453 6.60577 0.156954
411.31 6.29281 0.149396
378.065 5.93221 0.149515
388.673 6.01128 0.15497
370.129 6.28636 0.163378
351.505 6.22406 0.166932
341.965 6.08859 0.16832
351.449 6.37659 0.18137
329.294 5.86484 0.171316
332.822 6.63512 0.19939
297.654 6.22783 0.191063
330.327 6.40277 0.200252
277.422 5.63564 0.181624
295.957 5.97439 0.19743
278.869 6.08527 0.201852
278.877 6.19174 0.211618
265.429 6.00114 0.211476
265.589 6.5832 0.239634
256.749 6.22649 0.231097
243.4 6.10743 0.228959
260.667 6.57792 0.25403
225.893 5.6864 0.222323
230.486 6.14781 0.247606
236.581 6.22854 0.253844
217.481 5.94286 0.249632
230.917 6.29963 0.268121
218.435 6.31419 0.276355
202.462 5.97136 0.264704
221.546 6.5396 0.29618
219.996 6.59313 0.306695
192.838 5.90611 0.28054
199.817 6.34077 0.308218
198.138 6.71924 0.330391
182.82 5.96472 0.2974
189.404 6.12667 0.317701
186.054 6.29593 0.326994
178.905 6.27252 0.333956
176.172 6.41928 0.348209
171.59 6.03413 0.33512
174.479 6.47273 0.359738
167.141 6.50548 0.374843
163.015 5.98244 0.342703
169.581 6.25927 0.365914
164.542 6.59499 0.397506
152.008 6.06994 0.372489
160.142 6.38706 0.398529
150.835 6.29244 0.399344
142.842 6.23665 0.407383
140.832 6.40475 0.421387
138.774 6.16436 0.412199
138.987 5.9058 0.402477
140.638 6.48705 0.442099
134.305 6.16283 0.433842
128.477 5.84019 0.423133
132.506 6.31275 0.45199
115.559 5.63764 0.415694
133.278 6.26895 0.467764
129.445 6.50244 0.491309
121.884 5.72757 0.447782
124.76 6.67898 0.522461
114.178 6.29891 0.502543
107.775 5.75519 0.464763
115.725 6.16992 0.506672
116.824 6.49322 0.543593
114.421 6.34873 0.53751
101.98 5.88604 0.50091
102.187 5.85952 0.511166
98.7241 6.14662 0.539175
108.159 6.67233 0.603796
99.8561 5.723 0.52494
98.8273 6.08604 0.563888
96.1366 6.09954 0.564462
96.8805 6.02023 0.572921
94.9426 5.83529 0.560568
93.2961 6.41896 0.632425
97.6834 6.5434 0.654942
98.0306 6.76106 0.681934
94.2521 6.53424 0.66077
91.0438 6.38104 0.649686
86.2936 6.1618 0.636332
89.4793 5.91897 0.630927
86.797 5.93012 0.628101
86.3589 6.14227 0.66943
84.7299 6.37517 0.700795
82.4397 6.02709 0.668272
80.1708 6.08318 0.685408
82.2026 6.23333 0.714605
80.5294 6.19437 0.72076
76.0031 6.06441 0.712089
80.3961 6.24132 0.743709
80.3561 6.40987 0.762533
74.3169 6.00103 0.732132
77.7861 6.38819 0.7946
74.29 6.29394 0.774807
78.6218 6.81466 0.857335
73.1627 6.24258 0.798678
75.7389 6.42144 0.834964
71.6043 6.22007 0.814207
74.1848 6.04424 0.781622
68.7816 6.17863 0.834921
67.5965 6.04409 0.835565
69.4132 6.09676 0.833405
66.7598 6.00612 0.828156
69.2443 6.34801 0.896947
71.701 6.55167 0.925453
66.8512 6.10464 0.89095
67.7495 6.60291 0.951884
65.8673 6.65617 0.971735
64.6433 6.4945 0.95462
59.9162 6.20078 0.929914
62.2325 6.18247 0.951361
62.9352 6.42143 0.972933
61.1528 6.27442 0.97573
61.7875 6.13606 0.950097
57.6755 6.22846 1.00194
60.6894 6.43991 1.03621
55.9841 5.89243 0.95068
56.1208 5.90706 0.961939
55.9344 6.14584 1.02383
56.1033 6.26563 1.03815
53.6346 6.15664 1.02805
55.1147 6.30919 1.07057
51.3203 5.75434 1.00168
54.2546 6.28441 1.10541
55.8409 6.5316 1.13742
52.9223 6.11999 1.1028
50.7801 5.9276 1.06475
53.4472 6.32888 1.14395
53.3381 6.69332 1.22566
52.0137 6.52665 1.21135
48.5566 5.91035 1.08804
46.5083 5.84678 1.09946
46.9848 6.11438 1.18559
49.2899 6.21424 1.17955
53.5326 6.77851 1.31241
50.5946 6.68606 1.31472
45.7014 6.04461 1.20977
46.4883 6.20434 1.22267
47.0528 6.19104 1.25437
47.3225 6.39991 1.29748
43.994 6.24563 1.28884
46.6428 6.91314 1.43568
43.0626 6.19771 1.29706
45.2078 6.65628 1.39868
43.3468 6.3309 1.35173
43.4421 6.14922 1.33484
43.4595 6.1997 1.33712
43.2564 6.30158 1.38711
41.2408 6.14282 1.34674
42.4408 6.36936 1.42853
43.997 6.54992 1.451
41.3351 6.2696 1.43775
39.8096 6.08839 1.39666
38.8695 6.45617 1.47613
39.57 6.16903 1.44641
40.1264 6.2994 1.47811
40.4848 6.4272 1.52962
39.5637 6.08228 1.46905
36.3049 6.39016 1.56776
42.0105 6.48725 1.56062
39.4213 6.45167 1.56119
38.8578 6.50431 1.62545
36.3735 5.95788 1.49233
35.978 5.70951 1.41565
37.6297 6.31917 1.60998
38.9431 6.72442 1.73965
37.6174 6.67562 1.71312
35.177 6.50541 1.6955
36.7505 6.22685 1.63832
37.3155 6.78181 1.77442
36.049 6.97268 1.88243
35.9564 6.52728 1.72875
35.1287 6.19696 1.69065
35.6522 6.78166 1.84832
33.9169 6.37315 1.75958
34.0118 6.54653 1.82175
33.6083 6.21916 1.7349
33.8177 6.38627 1.79172
33.0772 6.21159 1.77246
31.9369 5.87814 1.67048
34.3395 6.47123 1.83999
30.3798 6.05833 1.7818
31.9112 6.61417 1.92927
32.8152 6.27367 1.85645
33.0881 6.22756 1.87974
33.1445 6.61803 1.98974
32.0194 6.83555 2.03606
30.0064 6.08456 1.86499
31.2947 6.45137 1.93372
29.7232 6.17666 1.9164
28.9129 6.39633 1.9784
29.5253 6.28083 1.98898
35.0388 7.21246 2.26666
29.5167 6.45316 2.06859
28.3195 6.29426 2.04082
31.0169 6.71595 2.14324
29.924 6.5548 2.17862
29.792 6.3898 2.06305
30.518 6.50828 2.16146
25.0426 5.88339 1.98193
27.918 6.33313 2.12221
28.2963 6.78983 2.30315
28.2131 6.41048 2.16452
26.8349 6.17762 2.13942
28.2936 6.56093 2.27431
26.1821 6.1357 2.14404
25.711 6.17868 2.18941
27.1946 6.7339 2.39069
27.4502 6.61766 2.34743
25.924 6.40195 2.31196
26.9515 6.5405 2.34656
25.9716 6.22424 2.2557
26.4993 6.51486 2.39058
27.2587 6.97813 2.49577
24.8105 6.74526 2.51996
25.0371 6.24863 2.32831
25.0994 6.31313 2.36228
26.355 6.78663 2.56912
24.4402 6.50105 2.49039
26.7366 6.65757 2.59976
25.3425 6.40778 2.42116
25.7049 6.63071 2.6027
23.8986 6.51198 2.55062
23.6489 6.23692 2.44571
25.102 6.56013 2.57887
25.4967 6.77911 2.70605
24.1179 6.72569 2.66501
23.2946 6.64219 2.62323
23.759 6.66999 2.71631
24.3146 6.52325 2.66312
22.4677 6.55619 2.70844
23.4744 6.38678 2.67685
22.0917 6.33256 2.65763
24.1283 6.56647 2.76198
22.1286 6.36278 2.66102
20.9262 6.30788 2.69694
22.8215 6.41876 2.75661
23.2008 6.25269 2.63693
20.856 6.08807 2.63909
22.7377 6.70444 2.91435
22.0659 6.26887 2.73759
23.4756 7.06778 3.15184
21.2726 6.78522 2.95053
20.3488 6.39154 2.89467
20.9263 6.42875 2.92296
20.4272 6.41219 2.9172
20.6917 6.61491 3.04358
20.3164 6.09961 2.85673
22.127 6.44429 2.92925
22.3397 7.13043 3.25359
19.9771 6.21315 2.90573
20.8028 6.46945 3.00245
18.8142 5.97837 2.81811
19.7996 6.55618 3.14517
20.3449 6.35515 3.09006
20.5893 6.53956 3.06177
20.3458 6.38295 3.1199
20.1005 6.36763 3.01997
20.4562 6.70948 3.26362
19.3459 6.1369 3.00246
20.0358 7.02218 3.44435
19.1003 6.58787 3.34346
19.4506 6.65996 3.37248
20.6341 6.90624 3.47234
19.6328 6.62712 3.36169
20.0814 7.09406 3.61827
19.2902 6.28429 3.211
18.3116 6.2847 3.18429
19.1371 6.59602 3.41104
18.5355 6.57012 3.39349
18.3936 7.0522 3.70323
16.5469 6.43375 3.41504
17.9786 6.77961 3.6816
18.5838 6.51032 3.43941
18.2872 6.34004 3.36674
17.1863 6.29573 3.51465
20.0658 6.86146 3.62455
19.0326 6.84945 3.72986
18.7135 6.95714 3.81013
16.9941 6.61501 3.63263
17.245 6.87536 3.74202
18.526 7.08219 3.93974
17.0332 6.66108 3.78833
17.8057 6.45528 3.66379
17.3703 6.59419 3.6339
16.9584 6.37968 3.5992
16.5312 6.40439 3.6452
16.9021 7.02275 4.11314
17.5937 6.74549 3.87107
16.3051 6.27669 3.63825
17.3578 7.16256 4.17072
17.3708 7.047 4.18896
17.8776 6.84098 4.00833
16.4654 6.47177 3.84792
16.7348 6.74032 4.1231
16.4895 7.09674 4.22135
16.4992 6.63483 3.94765
15.842 6.78492 4.12709
15.4785 6.54426 3.94076
16.2313 6.39404 3.89232
16.1342 6.59012 4.07964
16.0445 6.58696 4.011
15.5676 6.68829 4.20998
16.3559 6.86147 4.27919
15.1284 6.95471 4.32306
15.3089 6.88429 4.45422
15.8721 7.00891 4.3955
16.0118 7.13643 4.59149
15.9458 6.98761 4.4896
16.3701 6.50015 4.09163
14.8611 6.55666 4.23757
15.1099 6.87518 4.54924
14.1722 6.40159 4.07857
14.5248 6.31801 4.35533
15.0268 7.15621 4.57658
14.5023 7.16221 4.79663
14.7872 6.67221 4.39427
14.3539 6.55735 4.35003
14.7156 6.85318 4.60835
13.7076 6.41123 4.37016
14.1744 6.64132 4.59778
14.8549 6.67472 4.42518
13.8918 6.46911 4.55681
14.0264 6.40821 4.3547
13.8583 6.73722 4.65662
13.4666 6.6454 4.71049
14.3782 6.793 4.73093
13.2118 6.39354 4.54941
14.0973 6.53589 4.55591
14.0601 7.03011 5.07353
13.6237 6.62346 4.61098
14.0849 6.69326 4.78768
14.016 6.96451 4.9812
13.1563 6.89235 5.00185
12.7594 6.71857 4.96172
13.8232 7.14953 5.12882
14.2995 6.93648 5.08367
13.1508 6.80714 5.04931
13.4327 6.90702 5.16036
12.4953 6.47074 4.87596
12.7817 6.73876 5.00083
12.7911 6.35024 4.74797
12.8161 6.58525 4.86206
12.6077 7.01983 5.43153
14.0747 7.51823 5.58277
13.6177 6.94752 5.33753
12.5167 6.60759 5.10973
13.1539 6.99831 5.25213
12.4872 6.82202 5.3092
13.5447 7.25006 5.54419
12.059 6.28967 4.92824
13.0564 6.87017 5.35241
13.6245 7.15824 5.61304
12.022 6.76671 5.42508
12.5456 6.34793 5.05922
12.1656 7.00829 5.62245
11.7847 6.71247 5.38987
12.84 6.96703 5.69067
12.8387 7.35124 6.0908
12.4038 6.89888 5.50132
12.0394 7.17618 5.8249
12.7594 6.7711 5.51057
12.1811 6.748 5.4414
11.9028 7.08804 5.79577
11.7498 6.63526 5.5137
12.3053 7.2327 5.97258
11.738 6.95514 5.91455
12.0811 6.73564 5.6563
12.255 7.61103 6.3837
12.2588 7.13402 6.04415
11.5906 6.78153 5.80545
12.6208 7.14618 6.11024
11.7533 7.35339 6.35254
11.5175 7.01658 6.00457
11.756 7.05448 6.05646
11.229 6.81256 5.96463
11.527 7.14874 6.27702
12.2507 7.1427 6.21473
11.07 6.5307 5.61966
11.8094 7.03833 6.07164
10.52 6.36583 5.63309
11.1225 6.86793 6.09727
11.1383 6.67977 6.23171
11.301 6.9595 6.16017
11.4197 6.94775 6.14295
10.2819 6.6007 6.1092
10.8141 6.66475 6.1928
11.0818 7.15684 6.33368
11.1746 6.90633 6.23379
10.9765 6.84555 6.41366
11.4171 7.76492 7.142
11.0194 7.19463 6.68403
9.96102 6.43094 5.95976
10.0755 6.78456 6.44293
11.2759 7.57358 7.11284
10.9969 7.05566 6.67184
10.7041 7.34269 6.91536
10.0638 6.44729 6.1229
10.2538 6.71225 6.40968
9.94214 6.38674 6.23454
10.2447 6.73486 6.56409
10.7299 7.23801 6.84519
9.78846 6.41687 6.12405
10.499 6.94672 6.7993
10.5524 6.80216 6.6825
10.3786 7.31759 7.09108
10.5497 7.63557 7.38739
9.78699 7.16908 7.08422
9.86455 7.00548 6.90193
9.96383 6.6731 6.86791
10.5606 7.35789 7.24428
10.1549 7.05597 6.97613
9.51954 7.13093 7.30717
9.84397 6.56807 6.74312
9.62709 6.55226 6.65037
9.25276 6.98207 7.15841
9.92106 7.03055 7.40771
10.3704 7.17127 7.07162
9.3961 7.21481 7.54893
9.67228 6.9566 7.25457
10.3457 7.4798 7.45947
9.43964 6.86278 7.15221
9.60366 6.98475 7.16576
10.3017 7.0009 7.19106
9.99477 7.58819 7.88853
9.46894 6.5858 6.98382
9.48313 7.15859 7.76488
10.1662 7.61266 7.96854
10.2633 7.55494 8.11656
9.00152 7.16069 7.74203
9.03586 6.96342 7.46973
9.31427 7.11907 7.79988
9.45778 6.82232 7.11871
8.90583 6.72976 7.4877
9.26748 7.18236 7.83003
9.56258 7.34686 8.17449
9.21176 7.31746 7.93519
9.09892 7.09925 7.73115
8.65702 6.91425 7.65998
9.38954 7.63222 8.52887
9.1543 7.11977 7.793
9.32619 7.67194 8.43227
8.75039 7.26238 8.08172
9.34646 7.01176 8.04117
8.99593 6.98326 7.83715
8.90609 7.22105 8.16315
9.25605 7.34722 8.45503
8.68773 7.08205 8.1625
9.21488 7.17599 8.05791
8.80261 6.91683 7.97798
8.43153 6.98602 7.97777
8.802 7.40661 8.68167
8.83431 7.05533 8.14454
8.6421 7.11496 8.44083
9.1239 7.05562 8.14732
8.81687 7.22453 8.46872
8.93337 7.3399 8.58776
9.01388 7.33643 8.50419
8.21426 6.80835 8.15727
8.58576 6.7111 7.97348
8.35614 7.37651 8.8402
8.67562 7.28798 8.64916
8.39895 7.55706 8.95991
8.3232 7.28581 9.11188
8.81869 7.41712 8.79147
8.6132 7.07573 8.5701
8.41812 7.20145 8.66096
8.42007 7.61246 9.3722
8.62506 7.51649 9.0286
8.2707 7.14883 8.87803
8.20801 7.24624 8.99791
8.14762 7.26173 8.83616
8.46182 7.67017 9.745
8.69597 7.51248 9.34014
8.36449 7.55939 9.52149
8.43673 7.38216 9.17707
8.68634 7.43182 9.53299
8.64733 7.35026 9.12515
8.42273 7.27638 9.09827
8.057 7.23615 9.15491
8.30361 7.40109 9.38002
8.34722 7.68069 9.75064
8.40093 7.10012 8.83703
8.27855 7.62206 9.9276
7.92843 7.1845 9.62651
8.03342 7.00789 9.18862
8.18538 7.28596 9.17667
7.49322 6.7055 8.59958
8.33605 7.77852 10.1813
8.40002 7.78023 9.95646
7.5367 6.96474 9.14922
8.19981 7.97 10.6608
7.75364 7.20992 9.75378
7.57441 7.25391 9.59787
8.00867 7.50294 9.88795
7.76772 7.72242 10.5935
7.99563 7.41071 9.54547
7.47652 7.37565 10.361
7.96507 7.43469 9.63575
7.59466 7.64056 10.2871
7.77787 7.51924 10.3819
7.66129 7.3935 10.2109
8.28249 8.05699 10.9592
7.51002 7.43124 10.5201
8.43819 7.95199 10.6504
7.75844 7.57481 10.5009
8.38254 8.06726 10.9239
7.74055 7.60343 10.5135
7.43549 7.54409 10.6225
7.83453 7.73534 10.6073
7.57214 7.7004 10.5838
7.6746 7.80902 11.0653
7.76524 7.51987 10.529
8.04327 8.03998 10.9859
7.16425 7.35086 10.6349
7.41787 7.30138 10.4066
7.50892 7.54324 10.9689
7.3616 7.54088 10.4644
7.64147 7.66972 11.2369
7.53087 7.73414 10.8524
7.05772 7.648 10.9978
7.20865 7.42968 10.569
7.47869 7.64115 11.2082
7.76102 8.13536 11.6458
6.8301 7.45065 10.8003
6.97627 7.27915 10.5415
7.33142 7.59738 11.2339
7.55369 7.75171 11.2297
6.76702 7.1077 10.6489
7.62571 8.42921 12.4665
7.35586 7.34021 10.9997
7.2144 7.2837 10.9103
7.70058 8.24266 12.5673
6.97416 7.04204 10.3608
6.94267 8.05991 12.1317
6.87958 7.5708 11.3457
7.29891 7.93625 12.086
7.67683 8.01101 11.9641
6.85424 7.88507 12.0334
7.12367 8.2278 12.5639
7.36834 7.79376 11.4356
6.81676 7.42241 11.5732
6.54255 7.24797 11.4059
6.82265 7.45398 11.4664
6.80972 7.32108 11.3969
7.30923 7.5956 11.4571
7.27707 7.76199 11.5758
7.20371 8.34025 12.9726
6.7632 7.29916 11.843
6.6433 7.71782 11.8572
6.96664 7.17087 11.0839
6.38495 7.42039 11.6909
6.79892 7.395 11.2782
6.56988 7.70011 12.2468
6.77378 7.59624 12.2773
6.91756 7.93782 12.3767
6.99857 7.86664 11.9222
6.43574 7.62757 12.2828
6.53878 8.07338 12.8713
6.27794 7.29501 12.0694
7.31181 8.16775 13.1055
6.74156 7.7035 12.4498
7.16961 8.02705 12.8314
6.63116 7.68909 11.9896
6.01296 7.31099 12.0987
6.70318 7.8537 13.0778
6.64324 7.29026 12.0139
6.74535 8.08688 13.214
6.73431 7.32147 11.9786
6.27441 7.57167 12.2857
6.52712 7.74996 13.2119
6.70441 7.74161 12.3338
5.94512 7.49221 12.6954
6.66156 7.68045 12.5365
5.95925 7.02175 11.9081
6.37927 7.70363 13.1103
6.55275 7.63495 12.7491
6.97547 8.11919 13.3053
6.74192 8.19757 13.5072
6.58184 7.861 13.4439
6.40205 7.78636 13.3057
6.243 7.75742 12.7902
6.04064 7.34847 12.7448
6.39224 8.16285 13.5157
6.57823 8.29992 14.499
6.28392 7.85869 13.3307
6.31364 7.78477 13.7831
6.4746 7.7867 13.0579
6.40983 7.65728 13.0842
6.65636 8.19773 14.2855
6.13736 7.49339 13.4265
6.63926 8.50973 14.2825
6.24224 8.1588 14.3096
6.5136 7.76084 13.3471
5.76731 7.47647 13.6244
6.44616 8.18149 14.4407
6.47879 7.87538 13.7501
6.14553 7.40617 13.3246
6.21797 8.07237 14.1813
5.95996 7.61987 13.6093
6.1852 8.23447 14.4978
5.98715 7.64873 13.6681
6.1631 8.02212 14.3258
5.87641 7.88575 14.0567
6.20908 7.89096 13.9492
5.73193 7.17958 13.2048
5.57811 7.57491 13.9037
6.37942 8.17498 14.4203
5.79329 7.62801 14.293
6.15494 7.8584 14.2932
5.97981 7.74483 13.8627
5.87985 7.91372 14.9328
6.12538 7.59752 13.7674
6.2564 8.07129 14.4243
6.41876 8.59485 15.7127
6.39349 8.43716 15.4388
6.05145 8.39094 14.8626
5.87475 7.54614 14.6228
6.00998 7.85262 14.2211
5.50479 7.56146 14.287
5.77515 7.95738 15.257
5.80962 7.65162 14.5837
6.24255 7.96074 14.9632
5.95501 8.0129 14.9579
6.09008 8.25971 14.8447
5.72874 8.02009 15.2693
6.00239 8.07344 15.0128
5.89772 8.13314 15.2882
5.48775 7.53679 14.5575
5.4534 7.33063 14.3613
5.75736 7.98138 14.5288
5.38459 7.93779 16.0118
5.76291 8.13099 15.4915
5.77354 8.04757 14.8855
5.92483 8.26425 16.4884
5.64361 7.40796 13.9835
5.55171 7.98823 15.4848
5.50226 8.22983 16.2928
6.16412 8.38998 16.0476
6.01133 8.71908 16.8001
5.78229 8.1215 15.8663
5.4139 7.92688 15.233
5.56083 8.00545 15.6742
5.71904 8.36587 16.6476
5.5893 8.09861 15.73
5.70149 8.14367 16.8456
5.69646 8.1429 15.8359
5.5249 8.20038 16.7231
5.98673 8.46906 16.7769
5.87243 8.08152 16.0294
5.973 8.7757 16.682
5.36439 8.07946 16.2038
5.52001 8.08624 16.0961
5.32591 8.17778 16.4734
5.62603 8.07272 16.3831
5.20555 7.84781 15.9971
5.46122 7.80646 16.0586
5.95857 8.391 16.845
5.53792 8.70792 18.3617
5.32078 7.8377 15.9621
5.16954 8.02149 16.2481
5.5218 8.34568 16.8497
5.54565 8.22782 17.1997
5.61837 8.79614 17.5653
5.40378 8.0583 16.5437
5.73331 8.66792 18.0747
5.50862 8.35404 17.614
5.98221 8.81732 17.2175
5.45802 8.62892 18.7302
5.42223 8.07331 16.7404
5.61483 8.13287 16.7039
5.21927 8.43859 18.2046
5.24566 8.25862 17.2182
5.33601 8.35498 17.2219
5.37051 8.2768 17.6614
5.43153 8.34037 17.455
5.39975 7.93733 16.6189
5.38723 8.4043 17.2338
5.22227 8.31459 17.9095
5.48815 8.25849 17.0506
5.44768 8.18841 17.4154
5.30218 8.3294 17.8094
5.29397 8.03459 17.2209
5.07957 8.14252 17.8017
5.51 8.15582 17.4999
5.5232 8.7905 18.6127
5.11713 7.78757 16.5516
4.98488 8.04653 17.6163
5.14426 8.73144 18.6201
5.26684 8.2105 17.8522
5.20248 8.31528 18.4266
5.51089 8.5108 18.7495
5.16834 8.17784 17.9191
5.16508 8.01298 17.2854
4.84987 7.68344 17.1589
5.18965 8.63776 19.2742
5.10356 8.91464 20.4763
5.77854 8.99474 19.1526
5.08464 8.32154 17.8623
5.23596 7.92471 18.1066
5.33394 8.78983 18.2001
5.0878 8.39369 19.234
5.41922 8.47267 18.3294
4.83517 8.11528 18.1144
4.7001 8.08956 18.7153
5.42301 8.49754 18.7027
5.11117 7.92282 17.52
4.73406 8.27522 19.2446
5.1485 8.35311 18.9653
5.13121 8.35615 18.7025
5.11971 8.20371 18.5877
5.46157 9.02742 20.5359
5.27023 8.28453 19.4251
5.4296 8.87281 18.7658
4.9029 8.8028 19.9105
4.94983 8.20744 18.8427
5.53072 9.0475 21.121
5.44901 9.02464 20.2646
5.20554 8.31919 18.7904
5.13026 8.77536 19.1001
4.73324 8.60191 19.3959
4.96976 8.25207 19.2256
4.85036 7.94011 18.5228
4.48601 7.9487 18.8872
4.8737 8.39587 19.0131
4.61795 7.88074 18.7971
4.63244 8.36067 19.4842
4.71332 8.21824 19.6536
5.03498 8.65264 19.9085
4.89295 8.7281 19.7267
4.82386 8.37304 20.1335
4.9855 8.38671 18.9689
4.48556 8.03817 19.3867
4.50911 7.98661 19.6053
4.96614 8.41023 19.2116
4.45582 8.1167 19.8791
4.8607 8.46059 19.5237
4.73373 8.06577 18.9884
4.55296 8.1209 18.8068
4.57786 8.85615 21.5225
4.98815 8.96211 21.9229
5.00961 8.65945 19.8846
4.3991 7.93681 19.3057
4.85609 8.75375 21.4763
5.10478 8.90163 20.9787
4.85016 8.73653 21.0497
4.96732 8.9131 21.9427
5.024 8.67199 20.8324
4.83203 8.95923 21.3679
4.62286 8.8746 21.5752
4.87337 8.91186 22.525
5.05748 8.62231 20.5731
4.97646 8.96161 22.1602
4.93265 8.76955 21.211
4.66037 8.71603 21.0642
4.78661 8.16997 20.8561
4.93295 8.9352 21.2772
4.47232 8.41702 21.224
4.71639 8.05877 20.0686
4.90527 9.13525 21.5141
4.86639 8.89818 21.6712
4.44936 8.21587 20.0033
4.508 8.16146 21.1222
4.85941 8.99639 23.2324
5.15024 9.50422 23.0405
5.06116 8.79949 21.4079
4.73494 8.74923 21.2522
4.40524 8.53981 22.0693
4.8311 9.46003 24.237
4.86763 8.47497 20.5774
4.47099 8.48969 21.8559
4.53594 8.20344 20.6394
4.5493 8.86865 21.3803
4.16862 8.41244 21.5627
4.39406 8.24527 21.3549
4.75508 9.10517 22.4705
4.86097 8.6827 22.6536
4.74767 9.14239 23.3475
4.92481 8.56794 21.7265
4.76396 8.30117 20.396
4.26053 8.21836 22.4283
4.58389 9.23415 22.9008
4.61642 9.37267 23.6497
4.64073 9.6358 24.3366
4.63764 8.28609 21.3203
4.60262 8.79644 23.4968
4.75254 8.63234 22.9229
5.08442 9.08533 22.4039
4.78804 8.92009 24.0391
4.81771 9.90039 24.5117
4.57633 8.8636 23.8265
4.81575 9.28351 23.3544
4.29603 9.18049 25.2358
4.92898 9.11966 23.7127
4.65631 9.2289 24.3983
4.57221 9.32434 25.1914
4.7328 9.2264 24.5972
4.82911 9.98476 25.8336
4.82992 9.46781 24.5503
4.6829 9.66959 25.3886
4.49085 9.46104 24.6097
4.52627 8.824 23.5754
4.54073 9.00207 23.4946
4.60407 8.92418 23.9748
4.69627 9.09258 23.041
4.66906 9.27046 24.2713
4.43262 8.78637 23.4088
4.60949 9.30553 25.5716
4.56284 8.8389 23.7366
4.57416 9.92736 26.2103
4.54676 9.0291 24.9348
4.735 8.90049 24.0214
4.8053 9.43871 24.9096
4.56719 8.95407 23.1008
4.11722 8.59938 23.5805
4.33242 8.67456 23.6063
4.48494 8.81818 23.3611
4.30757 8.59631 23.6306
4.48936 9.0388 24.4881
4.18755 8.74532 25.3938
4.66676 9.07192 24.2473
4.63486 9.35808 24.9634
4.36376 8.70448 24.0276
4.3767 8.97062 24.4402
4.46107 9.76205 26.5997
4.63483 8.97538 25.3827
4.54246 8.9395 24.7274
4.4356 8.42737 22.9668
4.20898 8.68269 23.6665
4.48648 9.12622 24.8231
4.36764 9.01595 24.2733
4.37003 8.96055 23.4222
4.1793 8.40283 24.9537
4.23013 8.89649 25.0268
4.42073 9.232 26.1899
4.46243 8.85905 24.2709
4.53885 9.31899 26.5963
4.44123 9.53686 26.327
4.15115 9.30271 25.6843
4.30678 8.81426 23.2183
4.0756 8.78244 25.1565
4.28422 9.14053 27.3193
4.63275 9.48031 26.3249
4.48699 8.63993 24.1588
4.14608 9.0889 26.2718
4.6998 9.75944 25.4048
4.22567 8.85042 26.2161
4.38585 8.77697 24.1861
4.09385 8.51971 24.2025
4.31715 8.97196 26.6261
4.64799 9.71407 26.2768
3.87753 8.54202 25.058
4.19478 9.25562 27.4453
4.34621 8.94265 24.9564
4.20327 8.7383 25.3204
4.34629 9.18842 25.2061
4.17672 8.92631 25.5523
4.25729 8.75359 24.0527
4.01568 9.05134 25.8884
4.26786 10.0032 28.9026
4.2366 9.25235 27.4654
4.52111 9.49812 26.4952
4.42892 9.79459 28.1342
4.16821 8.97881 26.5137
4.26884 9.13722 26.7251
4.22335 9.38871 27.0539
4.21774 9.36709 26.9362
4.11292 8.89447 26.315
3.99935 8.77699 26.9419
4.246 9.15099 25.1084
4.04678 9.1634 25.5102
3.83294 8.72094 28.159
4.63212 9.77662 29.4325
4.37873 9.20874 25.9879
4.09438 9.10211 26.0033
4.04443 9.16908 28.2546
4.35455 9.65324 29.2703
4.52767 10.1548 28.746
4.37825 9.85816 29.0609
4.21546 8.81157 26.0833
3.91569 8.83683 26.5705
3.98576 9.33083 27.6275
4.3061 9.0533 26.1787
4.14583 9.67722 27.0574
4.03099 8.55597 25.6231
3.88607 8.78337 26.2766
3.89914 9.07907 29.3304
4.57706 10.0915 27.3786
3.9243 9.34936 29.6412
4.31222 9.59465 28.4599
3.99452 8.83482 27.3241
4.07334 9.01448 27.6558
4.17317 9.53952 27.4455
4.07617 9.72291 29.8343
4.29053 9.81412 30.24
4.18388 10.0356 29.6781
4.2726 9.96459 29.4019
4.19253 8.73915 26.4254
4.22132 9.11949 28.4487
4.12286 9.47255 26.8884
3.76612 9.16829 28.4472
3.99425 9.00562 27.8193
3.84093 8.8181 26.9581
3.96652 9.98902 29.9644
3.98929 9.23271 28.3001
4.16362 9.30761 27.9537
3.99267 9.06605 28.714
3.96444 8.85097 27.2842
3.95577 9.05389 28.2828
3.91865 9.22964 28.0124
4.03747 9.14228 27.0887
3.82727 8.76133 27.1413
3.8526 9.0017 27.834
4.26886 9.76561 29.1385
3.85753 9.40486 28.8137
4.05024 8.89913 28.253
4.15937 9.08082 27.7145
3.59947 9.41696 31.1366
4.044 9.41212 28.4481
3.90216 9.06672 28.8212
4.04277 9.04916 28.8336
4.18948 9.48762 27.9944
4.04999 9.51222 27.5701
3.61896 8.83211 28.1156
3.89152 9.05395 29.4865
3.9932 9.63141 31.1493
4.23832 9.89713 30.0315
3.922 9.77871 31.1773
4.10281 9.2393 28.8625
3.95131 8.8471 27.65
3.94402 9.33982 30.3217
4.04478 9.71561 29.6474
3.71069 9.35467 29.841
3.87512 9.32001 29.3556
4.04468 9.3235 28.434
3.80143 9.09951 28.585
3.81217 9.45601 31.2906
4.01592 9.50924 28.6703
3.69168 9.00159 30.8591
4.2298 9.78749 28.8159
3.77318 9.57706 30.3433
4.10134 9.09715 27.8347
3.56152 9.31768 31.537
4.2498 9.86074 31.2343
4.1623 9.29119 30.489
4.15891 9.95344 31.7133
4.19675 9.63292 28.8914
3.56304 9.65819 31.1247
3.71099 8.94118 29.0556
3.78125 9.11357 29.7774
4.03149 9.55161 30.3409
4.05119 9.65869 32.3666
3.99469 9.2991 30.3709
3.87503 9.45432 29.9781
4.02868 9.21712 29.3223
4.09743 9.82252 30.035
3.55258 8.45229 29.225
3.93922 9.72275 31.1457
3.865 9.49622 30.8857
3.88089 9.75665 31.1897
3.95323 9.90982 32.1045
4.05328 9.9877 31.3862
3.7799 9.58513 30.8995
3.77729 8.97985 29.8054
3.66199 9.77483 32.204
4.01967 9.75444 31.3506
3.78356 9.41874 31.5175
3.80016 9.64294 32.5085
3.87544 9.33283 28.2118
3.65208 9.01658 30.4127
3.80345 9.11623 29.7974
3.6547 8.87649 29.7536
3.72664 9.45854 31.0103
3.88845 9.27938 30.3127
3.69959 9.64591 31.707
3.76504 8.7712 29.5462
3.68417 9.59629 31.5348
4.00441 9.84315 32.2663
3.83059 9.17398 32.6801
4.06725 9.5922 31.0075
3.80214 9.25481 30.6206
3.73783 9.67593 32.4247
3.83699 9.40304 31.3193
3.86358 9.605 30.9285
3.67583 9.62194 31.8382
3.65679 9.40514 31.3213
3.79441 9.75151 32.6141
3.76834 8.94361 30.9648
3.83176 9.13036 30.9109
3.67271 9.00813 29.1035
3.46231 8.9752 30.5087
3.6608 8.71621 30.5503
3.59013 9.3507 29.576
3.55537 9.53502 33.3362
3.75898 9.79364 33.3926
3.90084 9.37881 32.5268
4.09193 10.3402 31.9248
3.75968 9.13913 31.0456
3.59251 9.08405 31.0862
3.74644 9.90688 32.5755
3.70595 9.65473 31.5145
3.7204 9.50253 33.9808
3.90073 9.84972 32.344
3.6893 9.69837 33.0791
3.50986 9.48344 33.1876
3.83415 9.93223 34.2299
3.88135 9.44242 31.6532
3.73566 9.68164 32.9787
3.64045 9.36017 31.9117
3.74032 10.3369 36.3294
4.04152 9.71031 32.5295
3.67034 9.65441 31.0603
3.34022 9.46762 34.1688
3.68952 9.72328 32.6371
3.5662 9.15737 32.3939
3.67067 10.3656 35.7241
3.87652 10.5573 35.9446
4.00137 10.191 33.8751
3.54176 9.46823 34.0068
3.77717 9.22883 31.3921
3.58718 9.37772 33.368
3.98555 10.1836 33.5405
3.52372 9.60174 35.1364
4.01377 9.62567 32.1077
3.71122 9.9002 32.8064
3.71071 10.3373 34.7549
3.76528 10.1388 35.0026
3.76338 9.65295 33.4532
3.72852 9.64126 33.0101
3.51029 8.74904 30.8648
3.55106 9.45183 32.4101
3.68793 10.2216 34.1777
3.45329 8.92437 31.5849
3.51902 9.71132 35.5428
3.8397 9.67298 33.8379
3.74347 9.3961 32.5452
3.73583 9.9732 33.5961
3.52483 9.37535 33.7881
3.74794 9.97506 36.7112
3.8635 9.84507 34.8173
3.82436 9.94703 33.4874
3.6794 9.97057 33.3026
3.74587 10.0682 36.4605
3.78525 10.0007 34.2192
3.63017 9.78893 33.3547
3.75557 10.0444 34.754
3.52533 9.56923 33.6026
3.44059 9.57665 35.8446
3.72328 9.41527 35.8812
3.92872 9.59803 32.8764
3.66105 9.76248 32.9407
3.39311 9.81473 36.0245
3.76883 10.1735 37.5808
4.00292 10.4927 35.9359
3.82866 10.4853 34.3776
3.49718 9.92045 36.8064
3.62042 9.75282 33.6196
3.68181 9.91365 36.1341
3.69515 10.2586 34.8324
3.51786 9.82861 40.2345
4.127 10.8824 34.5399
3.59816 9.93091 36.5174
3.83437 10.7594 35.5329
3.38084 9.50168 34.8396
3.61763 9.08697 33.5784
3.54729 10.1705 35.4889
3.5675 9.63534 32.4073
3.30479 9.64046 35.9431
3.67985 9.47228 34.4
3.46424 9.80535 35.5872
3.58845 9.15491 32.8317
3.49877 9.91204 35.3534
3.81568 9.98345 35.704
3.62 10.7618 37.1755
3.68754 10.0596 37.4321
3.75747 10.0511 33.9689
3.41869 9.32434 34.3401
3.56018 10.088 35.5125
3.64445 10.3904 35.867
3.43011 9.88868 41.4273
4.21267 11.1234 38.4287
3.91452 10.9477 39.9407
3.84217 11.47 38.3534
3.67374 10.0547 38.5872
3.74058 10.9763 41.6622
4.22381 10.5327 37.1002
3.67575 10.273 34.9351
3.58491 10.1482 35.4079
3.60266 10.4153 39.5937
3.70161 9.90267 35.7977
3.57982 9.91835 34.5341
3.58701 9.76346 36.1409
3.50948 9.96902 37.2469
3.83364 10.1709 37.0129
3.64826 9.82723 37.4544
3.77652 10.5921 36.453
3.48123 10.2085 39.1611
3.68429 10.4228 38.4178
3.54374 10.487 37.1497
3.55971 10.2324 39.2332
3.73746 10.4777 36.5945
3.61025 9.48491 34.7528
3.34835 9.27109 34.8793
3.3477 9.95984 38.535
3.65873 10.8194 37.3349
3.46879 9.79991 37.805
3.66207 10.4221 35.7114
3.44161 9.80719 35.67
3.39403 9.36088 35.1771
3.43636 9.37629 36.5881
3.64198 9.9081 35.7395
3.47867 9.83829 36.9864
3.61378 10.7966 37.014
3.42049 10.0627 38.08
3.68635 9.32395 35.0927
3.60582 10.1422 36.4792
3.43754 9.68845 35.8286
3.39032 10.0056 37.273
3.38345 9.25251 33.7491
3.35015 9.3102 34.9375
3.36915 10.3342 37.7422
3.47656 10.1641 37.382
3.43916 10.3164 37.2044
3.45473 9.70521 38.5218
3.78994 10.1112 38.2141
3.38646 11.0063 36.7692
3.40044 9.10404 36.242
3.48173 9.81308 34.6613
3.24277 9.28265 35.6072
3.32716 9.67011 34.1462
3.10873 9.11761 37.8951
3.73573 9.90751 35.6103
3.31151 9.57852 36.1766
3.62047 10.1598 38.9586
3.51778 10.447 38.5346
3.56469 9.88407 37.0758
3.47674 9.88176 38.2176
3.55289 10.3271 35.7356
3.24764 9.36211 35.8678
3.45223 9.32425 35.019
3.336 9.50582 36.7284
3.42098 9.60991 35.4385
3.36784 9.88626 38.1489
3.44766 9.88697 38.2392
3.47853 10.1374 37.5161
3.50343 10.4534 38.2747
3.60405 10.3742 39.1506
3.55196 9.53658 35.1845
3.25733 10.4959 37.1093
3.33516 9.58111 37.1768
3.56227 9.88128 38.5194
3.55807 10.0026 38.1341
3.53962 9.92167 37.6136
3.51339 10.1443 38.7321
3.459 9.80808 36.4953
3.26728 9.28558 36.4366
3.51654 10.0353 37.8842
3.40163 10.0154 38.7896
3.53915 10.4052 37.5906
3.35532 10.13 37.5472
3.33702 10.3136 38.7793
3.45862 10.3598 41.4589
3.52353 9.93551 37.044
3.4733 10.2226 37.4019
3.37044 9.90236 37.4669
3.4037 10.2572 38.3457
3.47585 9.69773 38.1867
3.46169 9.5413 39.398
3.5386 11.081 42.3832
3.5755 10.5104 38.9987
3.26206 9.39222 34.8056
3.25402 10.1418 38.7415
3.29876 10.2746 40.156
3.59083 10.5296 39.3334
3.3838 9.92258 37.6887
3.42889 9.30094 35.6691
3.39348 10.1725 37.2829
3.32188 9.92366 39.5448
3.59207 9.39156 35.6554
3.15796 9.57356 37.8648
3.5126 10.0603 38.5811
3.78877 10.6557 37.9382
3.37086 9.78348 36.4732
3.23004 9.05667 37.5964
3.43349 10.1213 37.4063
3.26953 9.34236 36.8536
3.29159 10.2421 38.2571
3.3858 9.6224 37.0063
3.19672 9.73501 37.4381
3.20383 9.93307 37.9532
3.3479 10.2083 37.3706
3.29065 10.1048 37.3042
3.3107 10.0809 38.522
3.40373 9.54855 39.3631
3.53936 9.75967 36.4201
3.30672 9.96031 38.8488
3.39571 9.88973 36.0877
3.22098 9.12181 37.7324
3.28236 10.006 39.6398
3.56456 10.7982 42.4305
3.5603 10.9206 40.9831
3.52178 10.1413 39.5533
3.41866 10.3307 36.5258
3.26413 9.62606 39.1315
3.43812 9.98136 39.4442
3.2728 9.91242 38.9577
3.40505 9.40696 36.8667
3.35533 10.7251 38.034
3.31378 9.49122 36.9301
3.23225 10.5775 41.2576
3.4902 9.57557 37.7439
3.33218 10.2298 39.6496
3.41276 9.95869 38.1567
3.38386 9.63782 38.8448
3.42118 9.75706 38.4372
3.40931 9.62514 38.7962
3.54078 10.406 39.2171
3.47196 9.91012 38.8232
3.42006 10.5451 39.5649
3.47188 10.2636 38.4627
3.47161 9.61056 39.396
3.53621 10.7703 39.9967
3.45201 9.4737 37.1942
3.18894 10.0936 38.1392
3.35956 9.13465 37.2513
3.36463 10.5124 38.1914
3.16266 9.74284 40.7992
3.52167 10.4989 40.7515
3.31136 10.6659 42.4432
3.6147 10.0369 40.4839
3.52052 11.2433 41.929
3.35649 9.90702 35.583
3.11931 9.921 41.5667
3.39971 9.63283 40.0923
3.53628 10.7463 39.6272
3.30268 9.68994 37.2049
3.13859 9.99939 39.6311
3.37865 9.46067 40.5485
3.42356 9.76461 38.2238
3.41226 10.143 37.4093
3.12369 9.65729 38.6037
3.26842 9.92571 39.4609
3.17049 10.3966 41.4616
3.2847 10.0845 40.267
3.47014 9.87865 39.4976
3.4035 10.1919 40.6505
3.54366 10.8495 39.4031
3.17385 9.49601 40.6469
3.40991 9.90329 39.5684
3.53077 10.0663 37.901
3.32425 10.2902 40.9173
3.45813 9.97431 39.4781
3.40513 10.0345 39.7516
3.25692 10.3393 38.9462
3.24515 10.0279 36.774
3.10259 9.12537 36.5487
3.00732 9.76918 38.8627
3.32751 9.55247 40.0136
3.41413 10.0595 39.2724
3.30714 10.4939 40.9901
3.31145 9.31074 37.9061
3.26421 10.5018 41.7961
3.3488 9.78951 38.3803
3.15962 10.664 42.2114
3.49192 10.0074 40.2888
3.44837 10.3778 40.8315
3.42961 10.0799 39.113
3.33899 10.2522 39.9849
3.28252 10.2342 40.3993
3.38926 10.7676 40.7721
3.24066 9.49306 37.8093
3.12714 10.3818 41.4163
3.41435 10.1358 40.4133
3.40813 10.9426 43.4919
3.61779 9.97252 36.9575
3.03548 10.604 44.3548
3.62756 10.1985 37.6579
3.10931 10.5032 41.8136
3.42861 10.2918 39.8214
3.23983 9.79527 43.5617
3.55122 10.7838 40.6059
3.1624 9.93598 40.358
3.42814 10.2117 40.6787
3.3704 10.1713 39.9024
3.34613 10.8325 42.3707
3.36987 10.2371 39.0656
3.35912 10.109 41.809
3.4087 10.3088 38.7763
3.21187 9.78758 41.6742
3.30228 10.5195 38.0988
3.23304 10.1227 40.5237
3.28082 10.3372 40.7344
3.37664 10.1922 40.5037
3.44477 10.2728 40.7315
3.39854 10.2488 39.9779
3.33981 10.4588 41.5125
3.45037 10.3712 40.5116
3.3686 9.65647 38.346
3.31253 10.1802 41.998
3.44871 10.356 40.5864
3.24504 10.1577 40.2161
3.22905 9.86803 40.5763
3.36475 9.99576 38.1854
3.3074 9.42425 39.1369
3.1821 9.81813 38.1597
3.22021 10.4503 39.481
3.32862 9.84828 40.9748
3.28209 9.77707 40.6658
3.26058 10.2605 41.0135
3.43172 11.2284 42.4994
3.50424 10.9401 44.1876
3.66909 10.2974 43.0557
3.59277 10.1232 40.7601
3.32816 10.6574 38.8434
3.03933 9.88217 41.7859
3.48915 9.78203 39.7783
3.28449 10.3649 39.3224
3.38108 9.63852 39.2241
3.28331 10.0771 40.6964
3.25515 10.4261 39.734
3.27872 9.97852 38.7712
3.06201 9.7052 37.3717
3.28583 9.63337 39.098
3.2602 10.1476 40.6412
3.41635 9.46057 39.1226
3.23122 10.1886 39.3587
3.18453 9.73395 39.3921
3.34542 9.80908 40.5639
3.48621 11.3993 42.5485
3.39815 10.166 40.4878
3.35475 9.94467 40.8249
3.25514 10.4656 42.5781
3.39619 10.4773 40.1992
3.39479 9.81023 41.4498
3.25263 9.78521 38.5717
3.11171 10.2783 42.7848
3.49802 9.97985 37.7453
3.31379 9.91257 37.9645
3.08238 10.2032 42.2923
3.42841 10.5841 42.0757
3.41411 9.70062 39.3872
3.30614 10.9386 41.2113
3.29637 10.5083 40.7984
3.44501 10.3492 42.4491
3.49954 9.89182 39.3157
3.14399 9.58887 38.5611
3.23745 9.47107 39.2904
3.30943 10.3075 39.739
3.28495 9.71011 43.1295
3.50825 10.7532 42.3202
3.42504 10.7297 41.5123
3.29564 11.2156 44.7192
3.62143 9.59116 37.641
3.10193 9.8698 39.2298
3.29485 9.93222 39.7285
3.24656 10.2722 40.5251
3.46257 10.119 41.9556
3.44306 10.5003 43.1064
3.53365 10.0247 38.8269
3.12575 9.79432 43.2919
3.36293 10.6366 38.3842
3.15579 9.79893 39.8243
3.16001 10.5443 43.3032
3.5277 10.6197 41.3394
3.39318 10.1547 41.2991
3.30076 10.4522 41.5574
3.45755 10.6529 39.7246
3.41148 9.7772 39.7716
3.26713 10.0629 45.8178
3.58282 11.7805 45.0921
3.62442 10.9293 42.8919
3.51889 0 0