# pn-170911/RbIIA-34-KOKB-1280-1959.psd
# Power spectrum* (dif=0,1,2) (really just |FT|^2)
# NOTE: only the first half! (symmetric)
# weeks: 1280-1959
# 6 clock-days, 1 excluded
# PSD: 1441
6090.35 0.307619 0.00890289
170002 2.62986 0.00109981
1.3059e+06 26.8999 0.00181659
43331.4 1.79072 0.00113583
180636 13.7916 0.00151533
83008 9.94475 0.00121589
34518.6 2.81011 0.00153512
27033 6.04801 0.00338636
23091.7 4.58857 0.00282713
12563 4.74025 0.0031305
27937.8 10.1572 0.00596007
8860.59 4.39417 0.00314656
6554.8 4.26951 0.00347647
14351.1 10.7692 0.0107509
12169.9 9.04177 0.0113585
3691.32 3.98512 0.00373265
2192.24 2.31659 0.00263687
4590.99 4.59761 0.00583989
3342.23 2.11595 0.00311405
5983.4 6.1405 0.0127477
1496.19 3.12873 0.00619026
4405.96 5.47919 0.0128462
2661.32 4.71254 0.0115794
2221.34 3.75741 0.00994466
949.584 4.80129 0.0137601
1618.14 4.24454 0.0109806
2534.11 5.68294 0.0224566
3190.83 8.78202 0.0257883
1494.71 6.12599 0.0272835
1253.34 5.38676 0.0237359
1659.17 5.71043 0.0240687
831.069 2.78542 0.0124718
1417.38 7.39243 0.036686
1297.13 6.21506 0.0299712
1596.35 9.09235 0.0465487
846.641 2.77922 0.0215834
914.43 3.4695 0.0222732
475.241 2.79502 0.0169617
609.141 3.87188 0.0264184
436.485 3.39284 0.0256097
746.119 5.31871 0.0327171
862.553 6.79624 0.0590323
851.974 5.79417 0.0459033
844.263 6.97695 0.0604905
343.417 2.75139 0.0264805
505.537 4.70829 0.0511875
377.177 4.20068 0.0463989
416.28 1.96929 0.0291857
390.917 3.73449 0.0395725
730.559 10.8518 0.123065
367.079 4.88349 0.0656188
586.4 4.05896 0.0570569
384.683 4.56685 0.0543488
282.271 3.26802 0.0407882
468.378 3.97874 0.0485554
441.184 3.42305 0.0447104
606.866 6.49109 0.101706
533.265 6.29437 0.108693
401.83 3.08072 0.0430066
302.584 3.53451 0.0538658
390.878 4.97038 0.0847236
537.718 11.6147 0.199774
481.734 7.91968 0.151263
492.182 5.32201 0.100382
430.785 8.78064 0.17958
400.909 5.50418 0.111454
166.335 2.98435 0.0552513
220.075 3.63851 0.0800042
162.824 5.05765 0.110478
185.432 3.8341 0.0921319
207.499 2.92295 0.0746486
540.734 10.7229 0.28077
597.509 11.359 0.276175
219.968 4.58093 0.124117
264.407 6.98905 0.202813
199.01 3.63391 0.0821817
191.494 4.42368 0.126383
196.742 5.69904 0.150252
131.547 2.23087 0.0719696
329.695 7.37016 0.203403
265.348 6.69748 0.178509
226.182 3.73736 0.119104
219.361 5.71442 0.163368
277.884 9.56287 0.314767
351.57 8.24881 0.280931
171.289 6.65305 0.227193
147.938 3.71003 0.133018
236.857 5.35079 0.217271
109.477 3.10623 0.109358
161.717 6.59892 0.248609
94.5666 3.47415 0.132648
352.202 9.65172 0.366437
220.533 10.6906 0.422389
166.746 6.02342 0.237177
91.9357 2.8979 0.112561
199.772 6.83946 0.305573
230.864 9.51975 0.395282
210.639 5.94465 0.261416
190.26 8.21338 0.387351
99.5148 4.418 0.201047
76.9418 2.53088 0.115066
129.634 3.27119 0.154171
172.22 5.39805 0.281515
183.867 7.21777 0.364566
105.947 4.91689 0.242759
132.703 4.60635 0.240446
101.379 3.14656 0.151245
136.492 5.55765 0.296984
94.1943 2.34217 0.13493
91.9514 4.28564 0.248007
82.8139 2.81779 0.154958
42.9414 2.95131 0.158128
89.1766 4.17349 0.263282
78.0992 3.53898 0.214777
96.6865 5.47332 0.350092
176.674 8.58324 0.545193
125.576 5.76525 0.378867
78.8472 4.80168 0.306789
101.061 5.00156 0.320036
75.9903 3.90225 0.306875
93.287 4.90364 0.319195
95.2635 4.6559 0.283909
109.961 7.26561 0.492966
145.526 5.86066 0.426147
123.944 7.04481 0.505124
83.8596 4.04109 0.29998
64.1387 5.20374 0.379369
58.4879 3.72285 0.262811
97.6154 7.95526 0.627586
65.0487 4.60264 0.385845
71.1818 4.16525 0.342744
111.352 6.68553 0.589008
26.8503 2.20814 0.186264
54.3159 2.98579 0.245876
116.882 6.21032 0.547335
54.0854 2.68219 0.208748
34.0252 1.78696 0.150497
64.3691 7.29645 0.680441
55.268 3.09379 0.269511
94.8721 7.08638 0.621216
74.3824 6.31868 0.591357
40.022 2.82859 0.273809
34.8298 3.17563 0.333956
60.5049 4.75799 0.425499
70.3703 6.29828 0.596921
53.0409 3.62841 0.327004
40.8301 2.27061 0.236297
86.3565 5.30007 0.520598
72.1256 7.25959 0.716858
56.6084 3.84078 0.41579
54.7551 7.03685 0.795246
32.8781 2.90518 0.297943
41.5265 3.62458 0.435408
74.5583 5.75753 0.677856
28.6793 3.37883 0.343944
69.4597 7.91623 0.952571
104.343 9.18742 0.985144
103.906 8.01805 0.970003
16.494 1.94141 0.234551
62.2425 4.14437 0.481359
21.2952 3.74673 0.469847
101.251 6.94591 0.790749
51.3234 4.81306 0.593367
92.4649 8.07828 1.04503
33.6758 4.50431 0.560901
72.753 5.87051 0.650706
108.73 11.1111 1.48903
37.3327 6.5686 0.767379
65.0981 10.1018 1.27717
28.5777 4.27808 0.667227
41.2139 4.52248 0.577303
40.1214 2.94139 0.3951
63.1572 6.31894 1.004
51.4135 8.65485 1.1984
12.5825 3.44601 0.462512
25.9087 1.70658 0.201154
40.1262 4.51749 0.702134
33.6967 5.33371 0.7871
48.0382 8.0557 1.23122
58.4174 7.02541 1.0388
38.2429 3.67719 0.657911
44.1896 3.32362 0.453484
70.1953 7.57957 1.1659
40.2047 3.9218 0.642905
32.7652 4.06972 0.663175
57.8463 8.29289 1.36156
20.5625 3.66701 0.557575
68.6618 8.12971 1.365
62.8588 8.9348 1.39931
28.3905 5.20099 0.961285
17.2849 3.35256 0.517452
40.6695 5.45184 0.958125
30.871 4.65296 0.757959
40.4467 5.62416 0.986512
29.8261 6.43587 1.13645
30.4301 3.06276 0.519445
47.5147 7.50618 1.36295
49.4176 8.8324 1.53631
42.7016 5.51516 1.12511
25.9241 4.54659 0.955917
74.8779 10.199 1.81135
24.2284 3.19154 0.694002
37.927 6.75045 1.24075
31.3665 4.88498 1.14578
47.1588 7.88284 1.45816
48.2846 9.86222 1.99775
23.4401 4.74421 0.778795
15.2268 3.13248 0.591429
28.2323 6.36796 1.30062
20.6037 2.45685 0.547796
31.7622 3.24957 0.688935
34.7658 6.54603 1.34278
40.4295 5.34814 1.20444
15.0005 3.56279 0.794216
33.7085 5.00191 0.989581
32.8554 6.16739 1.2534
44.6955 6.38458 1.57722
28.355 5.45695 1.39605
24.6876 6.32221 1.26542
16.6225 3.09372 0.860178
20.9723 3.68895 0.684815
24.4233 4.89077 1.18682
41.7875 10.3163 2.13177
9.7221 4.16448 0.914739
24.4443 4.86084 1.10541
28.2521 6.91973 1.76608
17.695 3.89039 0.815976
24.9811 5.40789 1.39765
33.6761 6.89578 1.54429
18.8396 3.87378 0.965191
29.2234 7.01756 1.74488
33.7543 6.45535 1.54143
4.10918 1.34488 0.396025
21.2697 4.02927 1.11851
16.9858 5.13742 1.39148
37.1018 6.12889 1.37804
22.9772 4.61676 1.09473
20.6046 3.80552 0.976766
10.4956 2.79914 0.94331
40.3407 8.10547 2.05695
19.1449 3.89169 1.2609
45.1526 11.0918 2.96514
31.3177 9.10431 2.48664
34.2133 4.63028 1.15017
26.4588 7.97814 2.21102
36.3362 8.69416 2.35254
19.8852 3.55771 1.08562
38.8891 8.21365 2.49857
27.9788 8.9146 2.41144
11.9698 3.51476 1.10971
10.9601 4.0958 1.54765
38.2822 6.37367 1.39737
38.726 9.32552 2.93932
25.8229 3.51243 0.695096
37.4118 7.94509 2.31934
17.7166 3.49421 1.26708
16.4049 3.62972 0.957729
17.669 7.02856 2.12554
23.7702 4.21216 1.45693
18.5414 4.20262 1.26949
15.2617 6.29771 2.26837
39.9806 7.97755 2.17066
18.537 7.29757 2.30242
23.5861 6.13108 1.94544
30.9466 6.59341 2.12127
21.0398 5.84008 1.90098
28.1177 6.02396 2.19994
35.9189 12.0889 3.68878
27.824 8.1533 2.73701
14.3811 4.74124 1.56939
29.2516 8.28673 2.49256
8.84983 3.02488 0.998338
17.7571 4.457 1.36384
17.5429 6.55682 2.42933
5.98648 1.30904 0.471141
8.25774 2.12303 0.837463
17.4189 4.24045 1.46322
10.848 3.09158 1.21643
27.5382 5.96542 1.81225
16.3176 7.18473 2.95819
11.0396 1.56678 0.450646
23.1134 7.26591 3.06828
19.9939 6.52788 2.00509
13.9329 4.5084 1.35186
26.4034 9.51063 3.50779
12.6414 6.1984 2.30017
17.1561 5.69315 2.0092
20.6659 5.7163 2.34692
14.8163 6.10887 2.2384
11.1027 4.7295 2.07643
13.4548 5.54811 2.277
24.3104 8.48053 3.70278
13.949 2.89939 0.881681
10.0949 4.149 1.80219
15.0047 5.81878 2.36495
8.99561 2.12758 0.736391
10.595 4.73662 2.04836
12.3584 3.36587 1.26528
16.4856 6.87886 2.7477
12.7081 4.2986 2.05522
16.3162 6.76612 2.45922
14.3993 6.53782 2.74666
20.612 4.80709 1.72971
12.9159 4.99473 2.57403
34.6898 11.3695 4.03459
16.6278 8.0881 3.78932
14.4518 6.95638 2.65479
20.4841 6.30099 2.5293
15.0556 9.63129 4.70411
22.2775 5.82968 2.09203
23.9763 6.47354 2.63704
8.62053 3.82272 1.77949
13.4965 5.72084 2.71839
18.6333 3.88188 1.49784
13.4559 4.36803 2.19251
23.5149 6.83842 2.91263
7.24095 3.15486 1.39997
15.3148 6.1147 2.82769
8.32149 3.23527 1.9162
15.2348 4.13154 1.92
12.1935 5.44707 2.29601
10.6587 4.45565 1.99695
11.4716 5.54568 2.6328
15.4243 5.52741 2.71118
20.5404 7.82533 3.97703
9.33169 1.6799 1.08262
10.6314 5.8217 2.72769
12.952 4.74169 2.31001
19.5654 12.9668 6.30754
17.3138 6.63462 2.93809
9.80288 2.8963 1.27229
5.8835 3.57026 2.18727
25.4225 9.96037 4.36277
7.7801 2.91797 1.59096
15.1327 8.48846 4.96523
14.9493 4.70335 2.39004
10.5876 3.50507 1.41239
5.21799 3.4734 1.98672
13.2381 4.31576 2.03079
17.0734 6.45364 3.57794
9.85569 3.62159 1.87383
7.16228 3.67583 1.76033
12.1582 7.79477 4.29634
11.4176 3.69754 1.92487
4.51229 2.34103 1.36477
10.257 3.46774 2.01183
20.4003 8.88503 4.8644
14.8596 8.92088 4.17237
5.5606 3.28084 2.01416
8.09009 4.71831 2.9862
9.23108 3.31137 2.32522
14.8875 5.93371 3.50965
15.3471 8.79954 4.32927
12.4907 5.39842 3.10345
4.79286 3.20099 1.80868
15.1837 8.92759 4.71315
15.056 6.39415 3.74051
6.59367 3.3209 1.68561
11.4751 2.77388 1.65103
6.52751 2.9356 1.92553
9.29527 7.36892 4.2479
14.6857 7.37742 5.17946
14.4491 7.16725 3.19971
4.90081 3.63463 2.21572
11.2935 6.07162 3.37628
16.3413 9.76632 6.2419
12.0887 4.59103 2.49077
8.38142 5.55788 4.01895
18.2408 7.65002 4.51578
9.0988 5.31965 3.17704
15.3937 7.77439 4.76799
12.7107 6.4888 4.35599
7.68405 4.00787 2.62336
10.3305 4.81522 3.42225
30.4593 12.8633 7.53578
8.72202 5.54128 3.70954
12.4088 6.03238 4.50253
14.9032 4.87317 2.31405
12.6834 6.60423 4.37384
13.3259 6.85132 3.99796
10.0447 5.79088 4.63844
11.9397 8.88993 5.9326
10.8205 7.89595 5.18363
17.0629 6.20075 3.80807
6.82216 5.18546 2.9757
6.56247 6.56868 4.42446
8.46688 3.04449 2.31491
6.37241 6.42821 4.06605
12.4158 5.95656 4.71311
14.5965 5.67972 3.57997
6.43953 3.31946 2.01015
8.22172 6.92251 4.47213
7.12767 2.35247 1.42811
6.96613 7.23379 4.87224
10.279 5.28959 4.16375
20.1339 12.7949 7.94493
12.1296 10.875 8.74634
7.60931 4.21465 2.88429
7.02114 3.83631 3.04996
13.37 6.55194 4.30403
12.9984 6.59616 4.55467
6.26738 3.7709 2.90266
12.4282 9.52785 7.36837
14.096 5.87343 3.92349
10.3302 7.79995 5.5981
19.2555 11.7883 8.21014
12.9339 9.86951 8.29099
11.5501 5.8614 4.18828
9.44759 5.5682 4.60984
6.33153 2.61129 2.02167
7.20271 2.67437 1.88929
11.1524 4.17481 3.09249
16.4123 8.32804 4.90319
8.07105 3.34558 2.36912
13.8486 6.90918 5.14946
8.09796 6.10626 5.07944
4.67138 2.5051 2.26846
8.97505 5.89146 4.45504
4.99942 3.36212 2.28773
14.7382 8.98434 6.99484
6.29395 4.38222 4.47065
10.3555 7.51809 4.17586
4.82868 4.86073 4.43269
5.80131 3.20747 2.28581
8.51082 5.65555 5.75148
15.8267 11.7282 9.04232
7.8806 4.1176 3.40378
16.0765 11.7308 9.1221
7.77362 5.93654 5.58692
8.1982 5.84064 4.72995
9.08582 4.35783 2.28309
11.8418 9.78292 9.3195
5.69408 4.00566 2.65478
6.06266 3.19218 2.17331
4.09987 4.07728 4.54448
14.2586 6.03482 3.4681
6.98829 3.51511 3.44377
9.29307 5.25586 4.03657
8.53876 4.3283 3.46909
9.21773 7.66844 7.60509
11.8086 6.92623 5.04472
4.93018 4.85806 5.7045
9.73647 6.16614 3.78007
7.88612 7.72497 6.5968
4.31042 3.23806 3.63529
5.85314 3.69437 2.71151
5.26512 6.50642 6.09361
6.41669 4.50382 3.58924
6.17004 4.13337 3.98882
5.57579 4.44572 3.69079
3.39698 5.30574 5.1175
7.19625 7.50337 5.72215
2.6002 3.08951 4.12306
7.40462 4.77167 5.34329
10.6774 8.01837 8.08795
12.7591 6.8503 5.45256
12.7196 6.95455 5.40096
7.48347 4.49369 3.7117
9.97016 8.19449 7.83826
14.036 9.75248 8.00288
4.14138 4.76334 3.9482
8.69058 7.70417 6.9683
7.01045 6.61034 5.8711
3.96301 2.30142 1.84935
7.75836 9.03797 9.56876
9.11027 5.96345 4.56431
7.07962 5.3674 5.5497
5.97574 5.38436 7.16041
9.15448 7.00617 5.39055
7.93395 6.51347 5.88838
5.06473 4.06586 3.74191
10.2311 6.62985 5.36947
6.43187 8.31221 8.78648
5.05371 5.25852 5.48125
7.48828 4.4924 3.58802
6.18614 6.2367 7.13538
7.01294 5.71927 7.79509
6.14939 3.20566 2.27814
6.3113 8.47247 7.8136
9.6656 8.71075 9.45368
9.80846 8.66216 10.8599
11.7829 7.83801 5.82024
9.21316 5.0653 4.00876
4.66785 5.70481 6.01135
12.4427 9.84914 10.2778
7.26206 6.5359 6.36607
5.36814 6.52239 7.9033
4.05982 4.67373 6.01613
6.20227 3.84234 4.48561
11.4479 9.71181 7.80174
6.75332 4.66868 7.04028
18.9167 15.251 13.5612
9.81354 8.22288 9.49976
6.69237 6.72192 6.55577
8.13909 5.3507 4.84893
4.05459 3.58846 5.96512
9.21138 8.57574 7.9259
3.73271 5.98845 7.92288
8.82117 8.62363 10.9635
7.4029 6.09232 4.37724
6.65616 5.07679 5.94801
4.61631 3.50534 3.52492
5.61737 5.66044 6.98278
3.1367 3.19832 3.54757
2.87985 2.44524 1.99313
3.02787 4.00598 4.22596
6.12169 5.07385 6.18579
5.20168 3.18389 3.94531
2.73936 3.02989 4.1604
4.39277 4.8983 6.13722
4.6934 5.02176 6.11104
9.68062 10.4679 10.3909
2.46975 2.17152 2.21166
3.81052 5.95265 6.50035
3.73677 4.8423 5.52015
8.13125 8.50666 8.58572
5.65179 4.23911 6.32798
8.41611 6.95712 6.71771
6.42084 4.6715 6.03657
5.71919 4.38859 4.97838
5.25204 5.02607 4.95737
5.55411 6.58892 7.39473
8.85363 7.50327 10.0182
6.11382 5.99024 6.97699
3.97887 3.93717 4.24127
9.28001 8.56898 9.82931
7.62167 8.62288 10.8432
6.30023 5.7419 7.25515
3.5896 3.437 3.70243
1.49849 2.53612 4.62729
5.19171 7.9893 12.4012
12.6379 7.89412 4.85417
4.92436 5.63616 7.72584
8.87872 8.93574 8.11294
4.75652 3.37735 4.60465
4.16599 5.83413 9.26961
7.30676 4.65021 4.06101
5.15403 4.22305 6.37522
6.38001 4.36618 4.28706
7.04175 6.02049 5.45746
4.04406 5.69449 7.12971
4.48014 4.47059 6.42376
6.84268 6.21673 8.01061
4.82508 5.62264 7.68565
5.61492 4.28557 5.23834
5.22874 3.18215 5.62569
9.74739 9.58279 10.6903
6.15208 3.73315 4.0633
7.55768 5.49978 6.06625
7.23964 9.50885 13.95
8.51366 6.86965 7.52537
8.18437 12.034 15.4207
3.4238 2.37084 3.74711
6.00659 5.47393 7.3668
5.23659 4.05491 5.4006
12.0383 11.74 14.6505
7.13997 8.9653 9.52381
4.68734 3.51908 5.00951
7.28002 6.63127 10.1382
4.57323 3.69521 4.61148
4.06391 2.83667 2.32849
8.2375 9.85153 11.2051
6.56029 5.88983 6.29666
5.61793 7.70631 12.6435
4.69017 7.13127 9.25917
3.58186 4.24762 6.32057
4.42644 4.49147 6.92095
8.90696 7.79845 7.18227
3.06174 3.69548 5.09285
6.81685 6.04349 7.64537
3.80792 2.59917 4.66982
4.28241 6.38009 9.12752
3.58937 4.66314 7.09937
4.08909 5.19588 8.92238
10.8844 8.49733 7.73845
12.9269 15.9661 20.9541
4.07025 8.72586 16.9089
5.5814 5.87606 8.88294
5.3625 5.96433 8.54972
7.50539 14.365 16.5848
3.51919 2.05394 4.18025
4.54284 6.74546 11.6795
8.72705 7.97207 10.9555
9.18502 8.61245 9.03971
6.82428 6.87706 8.66953
3.92694 9.33237 19.5928
12.7255 7.80554 4.90237
11.5514 13.1326 17.8616
2.86491 5.87689 12.3368
10.3454 12.5996 17.4555
4.45069 4.87356 5.49527
2.43566 5.09711 8.16922
8.11585 9.31242 13.4466
1.71362 2.0728 5.91533
5.82783 6.95854 7.06598
1.379 1.79537 3.39722
1.70714 1.81318 3.44457
2.63855 2.9833 5.95488
2.26721 3.57259 5.73203
3.08427 7.46087 11.0405
11.5967 15.4375 19.8558
9.28136 16.9255 27.3886
3.71997 3.15303 9.99247
9.89329 14.4336 14.3702
1.54285 2.73772 6.89644
6.65761 9.42269 12.8715
5.09658 4.114 6.70437
7.4175 15.7745 24.6577
6.07503 7.63753 10.8049
4.55503 5.50224 8.80246
3.83489 7.57624 10.8218
3.96081 6.55254 11.1803
5.49056 6.43034 8.58519
4.64165 7.53964 13.9503
4.0789 3.49273 8.53281
8.51434 9.4753 13.5033
8.49375 16.186 19.3579
2.7068 6.59125 14.4171
8.70786 9.92154 17.4791
6.65846 4.99455 9.03627
9.4563 9.90015 15.4241
6.90119 11.0072 17.7696
8.79708 8.39956 10.6662
9.26435 11.4994 12.6574
3.48786 4.21138 8.28035
4.70993 5.90477 10.646
7.06609 14.8419 23.2967
5.01832 3.78149 5.98751
3.75378 10.3876 17.0426
5.24958 6.4863 18.0886
6.84047 5.36062 3.06086
3.76076 5.71812 7.30978
3.40268 7.91157 16.6424
6.73649 7.38321 9.67577
10.068 16.981 26.5819
6.10935 5.29149 10.1988
4.19627 3.81083 5.64841
5.55449 8.46567 11.0334
4.79594 6.41642 11.5129
2.22221 4.11069 8.53634
4.66487 4.73657 9.89667
1.73297 2.58081 6.01154
4.57634 5.67333 7.84205
5.31524 7.01164 13.0608
7.89244 11.3406 14.845
2.39568 5.26238 9.65743
3.044 3.71673 7.35083
3.54319 4.44886 6.34511
4.05756 8.30078 9.84751
3.77981 9.0176 17.5887
3.36628 5.78395 14.724
9.03765 11.0743 16.1926
4.26993 4.66482 10.7768
8.19617 13.0483 19.1226
6.43695 9.52223 17.8627
4.45961 5.92248 9.53413
5.75673 9.61162 18.3682
5.85641 6.16571 11.6396
6.03581 7.31216 9.63341
7.64138 12.232 24.6079
4.49084 4.45358 13.3069
7.6744 11.7731 18.5297
5.49072 6.16032 8.38549
3.25798 6.27898 8.17463
4.00336 7.16327 14.552
3.9105 4.99013 7.80216
4.45562 5.24591 9.54454
7.85368 11.0012 14.0629
5.85867 11.2264 22.0173
7.3733 9.04142 14.3734
3.13627 5.74655 13.7509
4.20836 7.44892 13.7145
8.49371 9.80953 17.9033
3.1139 4.18475 4.74143
2.49742 2.38459 5.83654
5.99185 9.14222 12.7305
2.63255 6.21969 12.9582
3.00326 5.92903 11.9248
5.25326 7.58419 13.1124
4.99875 6.77545 12.2283
3.80423 6.40744 9.05112
3.23773 6.91193 15.1914
3.0486 4.23527 11.3884
3.59117 4.93799 14.4912
5.25726 8.47915 14.0551
5.13919 8.44427 17.4495
6.09052 8.73144 9.80679
1.66789 4.99805 11.7738
2.87658 3.35722 4.21197
4.62497 12.0844 29.6782
6.34313 10.942 17.9166
5.03916 8.18806 12.925
5.14019 12.1077 20.2804
5.06955 6.38197 9.02443
3.80589 4.50173 6.39767
3.41363 6.343 9.57924
3.61855 9.27163 21.8191
4.92411 7.80205 18.4674
5.13062 5.21265 6.35934
1.83312 4.19531 11.7104
2.06998 6.09774 15.4429
7.43881 13.3619 23.4523
5.57885 9.31433 16.3631
5.85071 13.1827 27.1743
5.58779 6.02275 9.65661
4.1206 6.17877 11.5752
5.03956 7.51491 15.8247
3.71263 6.41757 9.58312
2.79855 6.0606 10.6197
2.98596 4.05223 10.6778
5.47951 11.797 20.5551
3.53309 6.26229 14.9174
5.55928 8.79179 17.0218
3.35109 6.99441 21.7922
4.60645 5.81193 11.5047
5.6397 7.41844 11.3285
3.43334 7.99746 21.5578
6.03706 7.66551 9.47299
3.53688 7.07307 17.0632
6.85168 9.60982 19.3038
5.21378 5.47873 13.3963
7.51941 13.4125 21.5116
4.13841 3.87351 6.10792
2.89349 4.58954 8.70842
4.81395 7.61062 13.0866
3.43506 8.93069 23.8615
4.84924 8.49534 16.3919
3.11247 4.61269 12.3039
4.26035 9.21703 16.2498
3.25994 4.81173 8.51334
2.90149 5.13157 13.6379
5.15537 8.3881 14.8999
3.32913 5.5004 10.9142
5.33348 15.0233 27.577
1.93618 6.65795 22.1262
6.41206 3.69801 6.97751
6.02505 8.88945 18.5757
5.41495 11.623 26.3796
6.53651 8.77641 13.9074
2.88523 4.15142 12.0559
3.73504 11.4587 20.6552
2.8652 3.71648 11.5148
5.44158 6.72298 13.0775
3.75214 8.52584 17.7593
5.30226 6.58068 12.6911
6.355 7.47592 16.4252
3.35852 5.98201 14.4236
5.5163 7.53869 20.459
7.47034 11.6774 14.3216
3.98331 6.59795 12.6649
3.04056 6.94215 14.7969
7.42269 12.1557 20.1277
2.7813 4.7395 9.87089
4.37345 9.67344 17.805
5.35167 15.1689 27.9085
2.74156 6.1439 20.5311
3.7746 7.01397 20.9894
4.28773 4.55303 15.8686
5.71331 8.54763 9.90811
3.86821 11.6125 23.0119
1.46469 3.51694 17.0238
5.40496 9.1705 12.7941
4.45496 11.8793 21.5943
1.40725 2.80109 12.6099
2.50442 4.08416 9.25988
5.30286 8.70768 18.486
5.14834 13.3591 28.7847
4.37153 9.20964 17.3133
5.03504 8.49989 16.289
1.84354 2.56561 10.0726
3.41341 1.68729 3.67544
6.56301 13.1029 28.6891
2.96264 7.40085 18.0042
2.05469 1.78324 3.08073
1.90292 6.53092 20.9752
4.59403 7.4331 19.2183
4.85188 10.0055 17.365
5.12487 7.6129 13.8536
3.2592 5.86834 6.47744
2.24649 11.2738 29.1445
6.32727 10.1897 21.3621
3.94019 7.95988 21.0419
3.69907 7.51401 13.2259
1.55748 2.98708 12.6876
3.9951 10.0122 20.335
2.68119 4.98188 18.7786
4.8168 8.75973 12.9107
3.69579 11.6001 20.224
3.65224 10.2507 32.3564
6.00095 7.79351 13.4728
5.12407 13.0487 32.0724
5.14679 7.81199 31.1859
6.1048 9.06463 16.5509
5.45179 8.36736 8.26629
4.13553 11.2398 29.4023
8.35983 12.3499 19.2647
2.21817 4.55052 15.1542
5.13485 12.173 26.872
2.65686 2.21337 4.6318
2.31524 5.76405 11.5531
1.91057 3.87386 10.5215
2.19075 5.55134 15.9077
2.58985 4.60349 13.3716
2.63491 5.22554 8.42255
2.90893 5.49893 11.5428
2.32727 7.26739 21.2391
5.15636 13.5155 28.7034
3.82129 9.95543 19.9914
5.75498 14.3832 35.4417
2.48327 9.13474 37.57
6.7746 6.45617 10.0311
2.47278 4.33174 10.6169
2.46308 3.67972 6.85582
3.59424 10.6436 24.5981
3.71884 6.14222 13.9875
3.15255 10.7072 30.8031
4.61683 9.6039 22.979
2.94273 4.0302 16.142
5.41628 6.17172 9.78013
2.2207 4.28621 9.03264
4.03825 8.83317 19.4647
2.11538 3.66906 14.5238
3.45683 6.3151 10.4837
3.72773 11.2267 32.0415
3.33334 4.21611 8.11126
3.26665 7.07653 14.734
2.15078 10.0252 36.8809
6.27484 10.2172 15.535
3.22542 3.92684 10.3594
4.97206 9.86898 22.6793
3.05062 7.28439 22.2604
3.95177 8.64032 21.145
3.81534 8.83517 17.85
2.04541 5.02115 8.61199
0.652024 2.69002 12.4367
4.20145 5.58232 7.99434
4.22061 16.7438 39.5486
3.01772 7.6523 13.9219
2.78229 7.15616 23.0093
3.46769 7.37607 12.4193
1.78334 9.58814 31.0802
6.44527 12.2255 17.5278
1.38658 7.95943 20.5071
3.09486 8.16722 28.6003
5.04017 9.09345 24.4179
5.22779 8.94556 19.7436
2.93544 10.2198 35.8508
4.82733 6.91111 18.8108
3.09071 3.30222 6.70825
2.41624 5.2852 13.8878
2.25726 3.49218 10.3996
4.08341 7.81168 18.4402
2.55545 6.29417 28.8629
6.47707 16.309 39.1463
4.65165 3.45793 13.9651
6.59423 19.402 39.6706
5.19406 11.1912 27.8137
6.13118 10.8993 25.411
2.8771 3.80093 3.93204
1.13223 4.21794 22.8103
4.73233 13.217 27.3427
2.87825 6.65076 19.4994
4.53711 11.2898 26.3597
2.85332 7.04126 27.7093
4.68654 7.8978 15.6482
4.02982 12.1627 32.5413
3.27275 8.89752 31.3045
8.41199 14.0857 32.9634
4.29251 7.79906 12.2128
1.92506 4.15901 8.244
2.3215 8.36668 31.2951
5.06434 9.44807 25.569
5.61956 8.31153 19.4925
2.18394 8.42263 39.5079
9.26339 23.1731 53.1133
6.39407 8.36964 20.1167
5.42374 7.98428 11.8437
1.48762 6.74108 24.078
4.32085 7.61352 19.0696
3.65719 4.84802 11.4436
3.54082 5.17726 11.7808
4.98873 16.4061 41.3318
4.59713 12.4027 29.497
3.26923 13.0207 34.6841
4.69053 8.85946 26.1415
3.89224 8.20274 17.6348
3.97851 8.28616 24.121
2.54834 6.13534 18.6292
3.088 4.93143 16.9594
3.02701 10.162 20.9932
3.03181 8.27071 24.2341
3.2361 8.42141 26.7847
4.45154 7.93942 18.7656
3.61664 7.49739 11.3746
1.39386 4.77969 17.617
4.04335 9.42729 26.4705
3.67876 10.1948 32.4548
3.3046 8.09131 19.1768
2.20207 7.34872 18.7321
2.56409 5.60444 17.5591
5.15515 9.34519 15.6343
1.52833 5.3149 19.5345
4.02166 8.50889 21.7197
4.16159 13.1775 28.2581
2.3584 4.30522 17.2129
3.16068 7.52362 20.0458
1.86534 4.69135 17.0797
2.42378 8.61742 21.8743
2.73324 9.48985 23.1251
2.67173 5.98353 19.3601
4.33437 8.69021 19.4045
2.37902 8.24653 35.3882
5.10568 9.50251 20.1593
1.77165 6.13172 30.0183
6.26315 16.229 33.8029
3.96845 4.81711 10.1262
2.69826 4.37626 13.4971
1.50638 5.88035 26.2023
4.14491 9.38802 18.9324
3.00891 9.17814 15.1356
2.8833 10.1444 36.0719
2.84744 10.4522 35.4894
3.88116 8.76777 22.7592
3.57435 3.46232 9.84429
4.10121 8.90549 20.1798
2.63962 8.65124 30.6274
3.93678 13.0239 37.5972
3.49165 8.88481 19.2291
2.87271 5.61763 19.9268
2.64091 5.66759 21.8177
1.75476 4.64487 11.3098
1.84384 6.29727 15.427
2.70759 6.66528 24.9434
3.1511 8.95766 20.1567
2.06926 3.12079 16.5288
3.54871 8.53641 17.5808
1.54114 9.78745 36.5572
4.67951 11.0247 20.0314
2.89288 9.52948 24.5803
2.14768 4.98094 24.8134
5.27215 7.85699 14.9318
2.51187 6.29123 18.0042
2.09818 7.13949 34.8404
6.12155 12.8956 14.7176
1.76402 9.60266 45.5488
7.20256 12.8994 19.0643
4.11829 19.7104 47.703
2.96385 12.0989 49.3444
4.4247 15.1477 36.8402
2.71704 10.8356 37.1895
3.49278 3.99818 17.0516
3.27166 6.91129 37.6025
5.32583 7.23999 13.5539
2.07396 10.1823 34.8392
3.39054 4.92259 24.1974
5.57182 17.2251 28.2837
1.76649 9.11896 37.0286
3.53956 6.32737 33.3638
4.12657 8.88815 25.2372
3.99469 7.54893 25.1807
3.6667 9.59352 23.8819
2.80362 4.49394 22.6892
4.6475 9.89949 26.8735
3.39236 6.91006 12.7448
2.97359 9.61823 21.559
2.55672 8.51774 34.0462
2.9177 7.41378 38.3071
4.81656 9.7872 19.5667
4.35817 11.4832 28.1061
2.9693 8.10056 23.9821
3.51268 7.81627 17.4459
2.04231 6.21527 24.2968
1.66491 3.80322 21.6303
3.14263 11.9772 35.7245
4.73279 17.7722 33.2105
3.76949 16.0841 67.3198
6.76046 11.1185 16.2069
1.28818 4.49092 25.1479
2.85649 13.3078 55.1288
6.40401 14.146 27.5107
3.36332 6.24014 19.4301
4.08995 15.4062 32.793
1.79902 11.0955 45.4275
4.58673 5.07897 25.178
2.75954 9.8282 15.9128
2.81004 11.1542 32.846
1.80072 5.36884 43.5083
4.87535 8.81678 22.2224
4.60667 13.5612 28.0368
2.451 5.72682 22.8943
2.1655 8.93928 26.5545
4.43372 11.2943 20.8029
1.63029 6.49771 33.6899
3.34655 5.99538 26.9658
3.34514 6.68825 19.5163
2.22347 3.69963 15.4543
2.17625 11.9302 51.4406
4.93288 4.18679 16.906
3.70858 10.4914 32.8334
4.05068 13.1329 30.6342
3.00237 4.9417 34.5683
5.69086 9.98879 28.4261
4.67793 13.5663 32.3631
3.43303 9.69113 49.8628
6.01061 12.8185 31.9369
5.85565 17.2456 35.5298
1.3299 3.78215 11.9419
2.27801 5.77528 13.6134
3.64814 8.17335 14.4089
2.04687 10.9211 32.3234
2.75278 7.69124 21.1591
3.07791 9.22024 29.6563
1.94964 6.20951 18.0375
1.67265 4.98424 19.6552
3.86575 14.5042 38.6522
3.6111 7.3559 32.1643
3.12455 9.78216 28.0016
2.57767 6.90476 23.9275
4.07185 7.54504 17.2873
3.50688 16.435 32.2509
1.24214 9.01516 37.3775
2.96003 4.27384 19.6986
2.42005 5.94906 14.7314
0.753755 10.2031 48.6215
6.78867 15.2503 44.5079
2.37137 6.16153 27.0509
3.6831 8.11769 15.461
1.27559 4.48389 18.2103
3.03628 11.536 36.4663
3.27806 7.57671 24.6195
1.3311 3.11356 9.96112
1.67904 4.24083 50.6117
8.4097 19.1524 29.7851
3.39485 11.8473 43.8285
4.82938 16.0663 30.9206
1.139 5.69557 38.0642
3.47408 11.7721 48.3163
5.62127 13.2058 38.9608
4.27348 7.65425 27.26
3.24551 5.9063 17.8936
2.66188 6.38032 15.1235
2.70902 8.58599 30.5233
2.04729 7.77375 38.2069
3.34495 9.18505 22.6291
2.82397 9.7745 53.1819
4.80397 17.9166 43.2877
3.11922 5.75772 18.2276
1.83639 7.15973 13.3711
1.52491 8.96929 32.7973
3.03318 10.8098 42.027
3.9761 7.49659 31.4971
3.39 7.14407 25.373
3.75729 12.3456 27.7835
0.921044 3.59506 11.1477
1.40377 6.83996 31.5343
3.76417 7.19687 25.1613
2.78467 3.89053 19.3164
2.16009 5.25806 40.873
5.20184 13.7495 36.1225
4.58402 14.0728 26.0908
2.86093 9.25664 26.8894
2.32242 5.31277 25.7567
2.46037 10.0334 34.4791
4.04625 9.30574 24.495
1.89246 7.53596 28.8876
4.06563 11.4043 39.8123
1.88589 10.9311 35.4735
3.33067 5.4038 10.6605
1.54227 8.02737 39.1641
3.98666 10.1005 51.6022
6.69417 19.1776 52.9007
4.22069 9.84467 22.3077
3.01112 8.72199 28.2393
2.37453 6.19291 22.5855
1.76157 3.82255 10.4732
1.85321 9.3646 35.6122
2.54008 11.0448 42.2443
4.28902 10.5355 34.0844
3.04653 5.96785 14.9989
1.69265 6.32279 40.5711
4.15777 11.5441 26.5198
3.41283 12.2379 40.968
3.64899 11.3094 29
2.61122 10.5028 24.6461
1.00024 2.41943 44.2583
5.44552 21.8157 45.5182
3.36327 10.1723 31.7847
3.98193 17.9203 49.9237
2.87918 10.0759 46.5852
2.92009 3.70261 8.44062
1.48896 5.21322 35.6796
4.27307 9.52801 16.4008
1.79954 10.8305 34.2834
2.76922 7.19869 37.4933
3.44418 11.0258 37.7947
3.5209 10.1067 37.9459
3.52294 10.9349 39.1214
3.02487 6.6203 34.5555
3.86148 14.1477 35.0142
2.2922 4.1246 22.2061
1.9001 4.56431 23.1866
3.24898 11.688 34.2235
3.98662 10.3518 28.8613
3.67317 12.5928 35.174
1.63209 6.66509 28.4662
3.06556 10.0262 36.6862
2.80765 7.38727 32.0373
2.92019 6.49931 14.9875
1.79674 13.2184 59.3052
4.9489 13.7834 30.5096
1.3875 3.8395 37.892
3.87883 9.30828 29.3442
3.40001 12.3217 56.2103
4.79008 21.4252 53.5124
4.54872 19.7062 61.5323
4.63982 7.91134 23.2899
2.63059 13.6163 38.2737
2.09897 3.93678 25.6867
4.35916 13.992 41.5038
2.72358 9.83174 40.463
3.6103 14.578 39.6492
2.48687 6.19635 55.7268
5.97939 19.0579 37.4627
2.05966 5.42631 40.778
5.6354 19.5289 56.9999
4.12356 7.70479 13.771
1.12084 5.72542 46.7332
5.53291 18.275 51.4984
4.71555 15.2364 53.2637
2.53073 9.09104 36.2031
2.53524 5.49405 10.4998
1.18927 3.48017 23.2214
3.04221 8.3278 19.5457
1.4765 6.24428 27.2001
2.5148 7.90376 33.0547
4.13268 9.58596 30.916
1.7581 5.6296 22.5714
2.15711 10.0677 22.265
1.90292 7.98439 40.0141
3.3092 8.1271 45.7291
4.78463 10.219 19.1784
2.59102 9.407 29.4941
2.31392 5.36965 20.1938
1.98973 8.93691 31.9164
2.22726 3.98257 22.4176
2.65442 13.0842 66.8735
4.61159 12.6455 21.1016
0.930271 2.20067 18.3159
1.55202 6.01939 27.9446
4.01949 13.9874 53.6261
3.70619 8.75751 17.4065
1.24402 8.03747 13.0127
1.71199 8.00552 30.0705
3.45554 16.1155 50.8224
2.19097 9.77421 55.4017
4.36701 9.20876 21.5669
1.38023 10.9712 45.9843
4.12294 5.00005 29.1467
4.0764 6.53224 18.723
1.51711 6.60298 19.3033
2.09216 5.36323 30.8397
3.4093 12.9066 44.2605
4.23177 10.753 31.0811
2.41443 6.28738 33.6699
4.45466 15.5379 46.308
2.70791 6.14858 26.8785
2.07832 4.23917 44.1277
4.12605 8.75988 22.5371
2.72158 14.3576 45.8644
4.42796 13.9891 22.6661
1.54263 8.48055 41.3177
2.10209 4.16281 17.7643
1.21746 4.41055 29.9791
2.77064 12.9103 31.1572
1.76676 1.42319 12.1867
2.11088 8.47211 28.7657
1.89324 10.2939 18.41
1.08492 5.31256 21.9081
2.62684 15.0796 62.4698
4.30049 16.1002 40.505
2.55813 6.54209 41.8708
4.13251 8.44197 17.306
1.03129 6.45719 38.9046
3.69192 7.14775 22.0874
2.09847 4.45973 44.5736
4.95376 19.5115 39.6765
1.84337 6.04469 19.4336
1.22039 6.06578 27.6026
2.70705 8.4113 38.2134
2.9912 10.111 41.2107
3.48413 3.33482 6.92806
2.09426 10.4881 49.7643
3.03854 7.10212 17.3945
1.37586 6.50309 26.4549
2.41221 9.77141 21.5912
1.84475 4.70697 15.8583
1.26552 7.2107 27.3286
1.5778 6.49013 78.6334
8.20927 25.8204 50.1099
2.86095 3.70745 14.48
2.32266 9.90084 41.9893
2.39028 7.51504 26.4959
2.66568 11.5283 51.4601
3.81737 7.44879 11.2721
1.18292 7.42756 47.9234
3.16536 14.3379 48.293
3.83642 8.82256 15.0928
0.815821 6.08811 28.2404
2.24036 12.4298 77.5452
6.0985 6.536 31.5634
3.48539 9.53969 17.0464
2.22094 8.60105 23.7967
2.12032 8.74517 45.8969
2.81403 7.72502 57.5498
4.64973 15.2321 26.5234
2.22684 14.0921 57.037
3.45117 8.09221 13.3331
1.20172 9.79703 29.691
1.76476 5.78658 53.5268
4.70038 22.0647 73.5107
4.77447 10.8057 22.5011
1.50168 7.41333 34.3504
2.78723 5.28576 28.3325
2.62154 7.19903 19.8264
1.90291 5.70455 21.505
2.37383 8.71633 40.1153
2.41332 7.39047 17.2125
2.10317 4.75349 29.4163
1.87103 7.54182 26.0195
2.22373 9.23686 48.7488
3.38063 7.54663 31.4082
2.36016 7.53509 21.4394
1.90945 11.1293 33.7844
2.02566 7.06052 32.3422
2.28184 6.8049 13.5788
0.967244 7.1781 41.7775
3.23178 9.20583 27.6005
2.20898 6.89165 35.1066
3.39663 9.10055 29.4148
2.4523 15.2276 56.9596
4.60612 19.4337 70.3689
4.72559 12.3572 70.2562
6.91268 11.0982 26.2637
2.43692 5.15458 27.3555
2.72698 5.06595 33.2006
3.01744 7.13608 15.4787
1.83265 13.6487 60.5826
4.55387 16.9087 38.9912
2.5507 7.44978 29.2187
2.56943 7.44906 37.5123
3.62267 12.7783 38.0128
2.57581 14.1325 62.8719
4.385 7.98532 10.4524
0.806109 3.65736 25.5431
1.67202 8.40617 29.2532
2.43454 4.43543 25.9961
1.76769 17.4516 66.834
4.43556 12.6581 56.6488
5.32307 7.15872 22.2196
2.3754 7.55377 28.96
2.15257 6.25602 41.5516
2.80331 12.7682 39.4876
3.08579 14.9595 72.9091
5.64095 7.76293 15.9963
1.35382 7.29856 27.2253
2.37054 8.36931 29.6669
2.56653 7.97196 21.5527
1.71538 7.23261 26.8114
1.75503 11.4815 46.5086
2.7004 6.57858 20.9808
2.36958 7.85189 48.6924
3.76603 8.13016 11.5523
1.49692 7.62819 42.1832
3.31222 14.1866 34.4414
3.24455 17.1131 79.2348
4.98848 14.7541 53.9781
3.89954 14.2929 41.9868
2.68026 5.62633 28.6514
2.3949 6.75875 31.769
2.50498 7.78678 21.6895
1.62562 10.2439 37.1135
2.94671 9.6748 56.1723
2.35872 12.6859 64.7401
4.11807 10.0264 56.0328
4.06007 10.5643 43.1309
3.45691 15.1556 27.569
1.87675 11.8906 38.7131
2.67217 9.73823 39.5766
2.46302 8.39566 43.6672
3.53084 10.8115 52.2078
2.86209 13.1896 32.7499
2.23867 5.95386 16.4982
1.46612 14.5555 54.6885
3.23255 7.21231 65.6062
6.00977 14.704 26.6643
1.96685 10.6576 65.8418
3.24803 10.6228 35.4201
2.84211 12.6861 42.9523
2.93934 12.2081 59.4798
4.04561 11.2215 17.1416
1.1529 4.52572 9.0841
0.958134 6.94615 44.9463
3.47062 3.0898 44.8441
3.90725 21.286 40.0004
2.46498 5.38468 22.3033
1.73598 5.51398 38.3888
2.71935 7.63594 23.4759
2.25905 11.5929 44.3379
2.99063 12.163 38.0328
2.62432 19.5289 65.9191
4.733 6.01223 27.6598
2.64119 7.08032 33.0616
2.41223 6.42968 34.8301
2.66759 14.7665 38.9693
2.97518 8.86452 30.6766
2.06048 6.51887 41.7259
2.82169 8.60197 38.5723
2.25874 12.1238 50.0371
3.83642 6.9212 19.7775
1.86976 6.52367 22.8661
2.30405 4.74848 24.6904
2.39299 7.69566 33.387
3.02638 9.39976 25.5295
1.93981 3.94993 35.1037
2.02508 6.72299 15.8172
0.819588 5.25608 17.7526
1.40905 7.95775 43.7932
3.72975 7.7958 21.9463
2.1102 6.47475 15.5019
1.25773 5.29803 17.2146
2.19181 9.86962 29.7229
1.43746 4.47958 39.4034
2.83076 11.37 40.8792
2.12171 7.95813 38.1813
2.67228 6.58502 41.8829
3.06479 15.4338 36.2456
2.30169 4.20501 17.3466
1.35948 12.3663 55.5256
4.1063 7.61808 13.9822
1.1671 3.41165 28.8875
1.53331 5.58532 34.4394
2.36949 9.71118 23.8504
1.47225 4.73147 21.8215
1.82011 6.1931 36.7544
3.09668 12.0054 33.5917
1.84597 9.22215 45.5723
3.49847 20.2678 55.3862
3.25916 6.23174 20.5854
1.3469 12.0791 79.1335
5.77423 10.0695 24.4606
2.13648 8.8266 30.1029
2.18072 7.58013 29.185
1.5528 11.6283 46.7692
3.04599 10.9933 31.9087
2.45831 12.7021 37.9861
2.5908 6.2806 31.5513
2.29041 9.86654 29.0833
2.14517 4.52576 34.9371
3.23811 12.6638 41.0281
2.32644 7.91104 30.1292
2.38299 8.40423 34.1236
2.452 3.89325 29.9976
1.68536 9.48974 38.9831
2.79213 8.74146 22.6203
1.41955 12.4849 58.8971
4.0199 10.0459 32.4723
2.71412 8.69683 30.1435
2.4828 13.7331 53.8914
3.36373 7.64177 43.0986
2.51222 6.47886 45.295
3.85808 11.8978 29.9525
2.28532 7.38154 13.17
0.819827 4.0073 25.8073
1.51594 7.34541 30.9618
1.6339 6.9173 42.5576
3.15262 9.30929 18.7688
2.03079 8.7552 30.8638
2.08027 5.47666 18.582
0.799812 10.3461 47.4825
3.12515 4.25264 46.9633
3.07944 5.37831 35.7225
2.28749 8.00001 35.5526
2.73311 8.09085 24.0608
1.31365 9.78393 46.7812
2.75683 14.4264 24.7113
1.83258 8.16767 35.7505
2.87441 7.31037 36.0796
3.29235 9.46233 36.1721
2.34613 9.90493 35.262
2.77744 5.05603 14.982
1.60957 9.03519 28.7952
2.13396 7.74463 36.7303
3.32905 10.6086 50.7952
3.41022 9.2867 41.4333
4.10259 10.0278 25.2234
1.35744 9.28289 28.0908
2.08187 2.75793 13.913
0.805302 9.93016 65.5783
4.76305 11.9778 37.1548
3.74861 8.04962 34.3028
2.7289 8.75731 50.1409
2.89713 18.1567 53.5937
3.01442 7.70379 20.5724
1.3574 6.63412 32.9766
1.25703 5.5668 31.6782
1.54091 12.5882 41.1824
2.98434 13.4588 31.6839
2.68271 7.06153 69.0516
5.81829 14.1492 57.56
4.464 15.1074 20.7731
1.42017 4.28407 33.5097
2.46418 10.4029 41.4914
2.93006 13.5228 44.2439
2.12555 7.05982 35.1914
2.00949 6.94333 41.8211
1.99688 13.749 75.5511
5.48538 25.6882 73.2583
4.48658 11.6326 26.0668
2.02393 7.58246 29.6943
2.81917 5.56225 36.8065
3.01767 9.26217 40.0501
3.63496 4.4964 35.4315
2.52821 13.0629 39.2635
2.6179 8.99804 35.7181
2.17935 8.02371 21.5348
1.77549 3.65437 38.2357
2.25613 14.0508 42.2
3.3914 10.8247 28.3565
2.59938 3.90868 33.3668
3.02618 8.01044 28.9103
3.01752 7.15771 41.5272
3.00422 5.7962 24.8439
2.15094 13.3229 46.6911
3.26969 10.8735 54.6011
4.53163 9.27261 26.1321
2.52498 10.6211 21.206
1.08939 15.1942 66.5433
3.8846 6.99364 24.0287
1.80371 10.271 38.7699
2.96512 9.9079 66.4417
4.14775 0 0