# pn-170911/RbII-15-RbIIA-1280-1959.psd
# Power spectrum* (dif=0,1,2) (really just |FT|^2)
# NOTE: only the first half! (symmetric)
# weeks: 1280-1959
# 21 clock-days, 98 excluded
# PSD: 1441
135068 1.80079 0.00980334
6.81519e+06 149.712 0.00214653
5.27085e+06 81.6254 0.00411462
2.18199e+06 49.6235 0.00332031
889331 29.3264 0.00338846
586647 13.749 0.00282337
324655 5.53172 0.00242564
248138 7.79147 0.00403296
170901 7.94794 0.00444118
124369 4.98436 0.00318104
102588 4.31433 0.00385575
75935.6 6.38756 0.00565033
70003.8 5.07338 0.00499148
67828.6 5.3495 0.00543916
61750.3 5.66614 0.00754231
43949.1 3.89292 0.00549124
41893.3 4.28126 0.00624461
34008.8 4.2438 0.0081067
31391.9 2.93411 0.00739799
25826.6 3.00377 0.00576089
28136.6 2.80653 0.00645569
23269.6 3.15169 0.00608013
21794.3 3.55501 0.0102419
20762.9 4.04585 0.0111779
18083 3.43669 0.0130773
16861.4 2.50246 0.0100902
14358 2.7419 0.0101922
12028.2 4.2118 0.0125876
11684.4 3.14181 0.0145454
11209.1 4.03174 0.0195952
10689.8 4.64611 0.0187004
9574.41 2.23446 0.0132331
9726.28 3.65537 0.0208432
8634.09 2.79648 0.0161241
8649.67 3.93255 0.0207322
8943.48 5.21814 0.0340299
9340.53 5.07524 0.0330325
7083.77 2.34455 0.0187871
7174.88 2.9038 0.0167013
6485.79 3.6016 0.0258115
6618.19 3.84852 0.0304865
7256.54 4.50026 0.0403584
5402.65 5.33445 0.0504629
5301.99 4.02786 0.0394028
5640.29 2.55113 0.0235327
5407.31 3.66523 0.035327
5189.08 3.1168 0.0320534
4422.46 3.08737 0.0334469
4919.57 2.88349 0.0393884
4780.05 3.99227 0.0487571
4144.19 3.02367 0.0416879
4662.31 3.1553 0.0431315
3634.97 4.52969 0.0614546
3668.23 3.06633 0.0420871
3453.65 2.87308 0.0387354
3360.07 2.6687 0.0437263
3045.71 2.58959 0.0410881
3786.79 3.42957 0.0470614
3119.75 3.40831 0.0593401
3593.03 4.4081 0.0783341
2882.91 3.06163 0.0557169
2734.69 3.69213 0.0657615
2525.49 2.43505 0.049724
2804.52 3.03709 0.065626
2753.36 2.65149 0.045306
2416.21 3.00356 0.0676596
2168.42 3.61998 0.077422
2227.05 1.84763 0.0472188
2314.23 2.88388 0.0597874
2381.01 3.20232 0.0774171
2143.68 3.01173 0.0690212
2119.44 4.64979 0.107454
2071.49 3.46237 0.0839224
2169.94 4.36026 0.122481
2036.11 2.54067 0.0743276
1891.59 2.73495 0.0783385
1843.35 2.76456 0.0822456
1592.19 2.45827 0.0684636
1692.25 2.66938 0.0781921
1397.75 3.37948 0.102331
1897.18 4.32807 0.123304
1406.78 3.60766 0.112005
1651.35 5.05194 0.176053
1454.19 3.27978 0.0984912
1458.37 3.56223 0.12413
1513.16 2.60619 0.0901435
1736.97 2.73512 0.100166
1239.09 2.80827 0.102648
1283.15 2.72506 0.103287
1241.49 3.54299 0.138809
1251.65 5.08456 0.192127
1234.34 2.38101 0.0978843
1120.17 4.54173 0.181654
1212.66 3.07994 0.122711
1286.33 3.57599 0.150043
929.4 4.42748 0.187302
1147.14 2.63514 0.121495
1157.93 3.51598 0.162977
1027.28 3.4409 0.156596
1157.43 1.96269 0.097902
1026.77 3.08034 0.150778
957.933 4.1714 0.198481
1048.36 6.43234 0.30804
977.254 4.87987 0.262812
1144.8 4.64395 0.228099
916.608 3.38313 0.177791
996.515 3.40979 0.191062
1175.97 4.31476 0.24133
846.947 2.8226 0.169825
806.333 3.96353 0.230298
939.521 4.51536 0.270896
825.521 3.80395 0.225875
978.616 3.37202 0.205092
747.077 2.27023 0.145584
799.938 2.19106 0.148913
847.19 2.85334 0.183339
802.643 2.82569 0.186883
717.682 4.02906 0.261833
649.391 2.57746 0.176055
723.949 3.32746 0.206524
709.353 3.35063 0.244453
678.54 3.34743 0.237797
732.791 2.27479 0.161
665.916 2.01898 0.152837
754.465 3.48113 0.247837
836.324 4.76539 0.376372
695.88 2.46969 0.200352
700.499 5.03928 0.376717
645.175 3.33979 0.262446
660.515 3.50833 0.301576
662.863 2.81967 0.220451
638.05 2.52739 0.216584
504.418 2.24846 0.190177
637.839 4.34035 0.371631
583.278 3.03324 0.261855
528.041 4.26001 0.370644
568.143 3.94108 0.368553
468.13 2.93969 0.262696
531.228 3.04612 0.286338
499.813 3.50693 0.309049
477.891 2.8811 0.269003
491.743 3.04385 0.300075
513.784 2.64368 0.255284
459.01 3.52907 0.339112
498.509 3.7554 0.369142
394.292 2.81133 0.279876
455.336 3.2422 0.31499
498.492 2.93362 0.280192
456.598 3.54921 0.377068
508.24 4.76034 0.515467
495.046 3.2883 0.358084
420.734 2.48689 0.256009
438.34 2.6023 0.296656
415.871 2.92242 0.322223
431.477 3.52024 0.416992
390.582 3.63773 0.386484
392.094 3.50377 0.398044
471.367 2.52366 0.272527
476.797 2.93133 0.353583
419.104 4.21579 0.504304
458.171 3.08799 0.390363
379.771 3.96278 0.488038
380.296 2.41964 0.319183
472.85 2.37079 0.302013
372.744 2.66155 0.342282
423.485 2.39065 0.292358
425.96 2.55703 0.33337
323.806 2.64043 0.3391
358.149 2.61926 0.334111
294.704 3.57354 0.468301
430.707 4.61168 0.645607
366.469 2.02406 0.270819
297.209 3.13973 0.438642
343.37 1.6379 0.2178
368.76 3.47149 0.488005
332.828 3.08261 0.456935
401.171 4.31685 0.622834
322.027 2.40101 0.380097
344.857 2.82748 0.397995
332.65 2.72424 0.422721
318.8 3.01954 0.444238
334.662 2.32091 0.34418
301.912 2.447 0.394293
315.914 2.66534 0.431834
378.286 2.14778 0.360047
305.827 4.46575 0.722984
313.848 2.90387 0.460565
336.735 3.51301 0.594776
247.561 3.36976 0.514636
281.724 3.36414 0.582499
292.988 2.7732 0.47483
268.512 4.08371 0.746382
352.474 2.9923 0.487258
326.564 3.15739 0.503568
301.16 2.49775 0.445041
284.606 3.28841 0.570643
240.447 1.64585 0.330924
277.91 3.14247 0.585692
303.485 3.71655 0.693858
296.003 5.07506 0.988137
277.536 3.2318 0.563619
224.87 2.26857 0.433884
285.546 3.12606 0.589118
272.869 3.82483 0.731529
264.05 3.07977 0.597056
317.514 5.51848 1.11138
232.757 3.15051 0.607789
230.016 1.72832 0.388692
259.172 3.83369 0.722213
229.226 3.4522 0.653835
230.469 2.77176 0.580436
203.855 4.57672 0.976751
242.006 4.20005 0.926603
274.765 5.21572 1.05727
265.03 4.11777 0.931334
219.668 4.09107 0.932764
263.734 2.81779 0.600321
236.337 3.70275 0.911591
220.714 2.17178 0.431502
289.674 3.91221 0.916997
182.056 2.13839 0.447797
240.845 2.81537 0.661362
217.244 3.02963 0.658284
215.51 3.52664 0.796491
209.483 1.61067 0.424241
240.081 3.95391 0.948407
189.967 4.19164 1.00334
237.071 2.4152 0.612367
192.293 2.31602 0.54856
231.674 4.49154 1.13076
179.152 1.94522 0.536292
180.22 2.08716 0.500757
186.239 5.01357 1.2319
190.648 4.06896 1.01327
199.722 3.70041 0.984047
200.545 5.77026 1.41416
167.456 2.0838 0.572831
217.787 4.0735 1.061
190.819 4.69356 1.27414
184.684 3.34392 0.922124
187.005 2.44953 0.653836
159.835 4.07447 1.19441
207.371 3.08013 0.823951
193.719 2.79051 0.737908
162.808 3.04366 0.851302
201.854 2.60629 0.726987
156.055 2.74958 0.85194
164.204 2.34915 0.572919
208.159 3.43615 0.897856
174.921 3.64849 1.05907
204.126 3.99198 1.30625
186.311 3.43687 0.911604
154.77 6.12992 1.74209
176.154 4.28457 1.29238
153.19 3.43416 1.07824
140.706 2.69202 0.783475
176.609 3.81535 1.10045
158.985 3.64955 1.14721
149.476 3.11784 0.91794
156.193 4.3216 1.41959
137.592 4.00926 1.27061
161.851 2.991 0.968053
155.899 2.48288 0.761333
153.121 3.56519 1.16357
167.304 3.84038 1.22132
156.653 2.92293 0.917015
167.591 6.61026 2.29301
166.727 3.61124 1.0799
137.398 2.04472 0.683521
144.661 2.79274 0.962146
142.596 3.99836 1.29214
151.931 2.4495 0.890748
169.524 3.09378 1.077
123.266 3.08932 1.02947
156.468 5.61185 1.85753
146.608 2.44106 0.893786
133.381 3.51516 1.27167
144.955 2.75354 0.957055
146.359 3.84787 1.42816
122.432 3.93703 1.45114
170.58 2.73584 1.00114
104.077 3.06878 1.1324
150.738 3.21281 1.1692
145.858 4.25306 1.59233
140.343 2.68477 0.963122
147.887 4.0391 1.66314
136.489 4.02386 1.44346
134.382 2.94776 1.16455
139.22 3.25522 1.15595
146.066 6.64238 2.65987
143.894 2.87066 1.0049
138.225 1.83886 0.790882
115.919 2.86299 1.20094
146.075 3.3383 1.27453
125.995 3.77952 1.42541
137.786 3.74598 1.50004
146.534 4.94978 1.90175
112.305 3.25708 1.23899
123.261 4.94155 1.96995
127.077 3.02172 1.21067
133.447 3.10111 1.41641
125.173 5.51143 2.18439
119.831 3.05354 1.40083
104.398 4.06313 1.79739
112.168 2.78491 1.1575
97.4649 6.13732 2.4137
126.482 1.90626 0.999378
113.779 2.62261 1.14126
117.523 3.60878 1.52123
141.614 4.11118 1.73428
105.485 4.09082 2.04726
101.115 3.74246 1.57252
124.751 3.09539 1.34497
97.3101 2.85017 1.24863
119.747 5.59872 2.6927
103.697 3.60777 1.56938
106.761 4.18043 1.81197
122.744 2.92297 1.52263
110.236 2.14239 1.02837
94.4182 4.09678 1.70768
126.003 2.21693 1.06508
98.1882 4.08782 1.8335
110.942 2.52601 1.37969
102.286 3.33243 1.45128
100.609 4.35962 2.43204
114.992 2.78747 1.2069
109.087 3.0212 1.52202
98.1048 4.23641 2.07968
113.63 2.87723 1.3902
96.2848 4.43828 2.16516
113.999 3.32295 1.68529
88.3804 2.4984 1.25196
85.3836 2.97176 1.40456
116.363 5.39899 2.57298
99.4317 3.01039 1.54837
105.586 2.83992 1.72531
88.806 3.3408 1.70309
80.1177 4.4705 2.44511
109.888 4.96217 2.50042
93.6633 3.66273 1.65129
91.8915 3.02074 1.76393
87.3469 3.85236 1.79769
90.7931 4.0638 2.43733
95.3301 3.67664 1.85785
97.1596 2.96386 1.60577
83.3295 2.7675 1.64837
100.24 2.9369 1.52307
88.9147 3.19891 1.79264
82.4551 2.71063 1.39994
97.6279 3.99305 2.08749
86.6776 4.33891 2.60717
81.6862 3.17917 1.6593
97.191 3.64834 2.06187
79.8784 2.63211 1.64643
104.746 5.86602 3.2373
95.5889 4.31304 2.47589
94.1099 3.83237 2.503
104.488 3.76906 2.24564
66.7612 1.70999 1.03255
90.5671 2.77785 1.58968
95.452 4.36458 2.63329
84.3826 3.32724 1.88586
86.2485 2.96343 1.65001
70.2887 2.66164 1.51673
78.4701 3.22787 1.98536
90.3851 4.16902 2.58412
80.0344 3.31079 2.39609
86.6763 5.11971 2.56776
81.952 3.3184 2.02565
69.5037 1.70679 1.11998
93.8747 3.34305 2.27729
70.1377 7.15772 4.56418
86.5425 3.23136 1.74272
94.567 3.78901 2.36738
64.4139 2.38313 1.58379
73.4762 2.80058 2.13041
86.5891 3.7737 1.9101
68.1959 3.45729 2.44939
102.361 3.89713 2.223
85.9172 2.8428 1.98397
72.4388 4.43768 3.02123
80.7136 4.67354 2.98767
68.985 2.28413 1.68927
71.4717 3.28693 2.36284
78.4913 3.14727 1.79015
68.0932 4.3122 2.96946
98.9901 2.04443 1.25444
68.2666 3.14366 2.27879
76.2211 4.8808 2.90368
68.9967 3.89268 2.91082
75.0831 3.62124 2.3126
65.4177 2.98036 2.20582
79.3958 2.98771 2.32385
74.8444 3.45036 2.36832
81.011 4.21684 2.65534
71.5458 3.38006 2.31943
80.0565 3.87266 2.77135
84.3992 4.0994 2.92327
71.5287 4.27098 2.88361
85.6683 4.42195 3.26257
76.1908 2.9405 2.39883
70.3302 3.7965 2.5832
68.3635 3.74921 2.45036
64.5592 1.86296 1.68886
69.2724 3.68571 2.69159
80.4552 3.45721 2.47069
57.399 3.82137 2.81932
79.3648 3.01718 1.81066
62.4234 3.74813 3.23791
70.17 5.84887 3.55034
82.8201 4.47531 4.08171
57.6999 3.18971 1.9616
68.2595 4.98453 4.08444
82.2306 4.56407 3.65473
61.8973 4.67439 3.91214
82.5477 6.77992 4.65653
63.047 4.142 3.26485
58.3184 4.21771 3.41476
82.5814 3.83441 2.93153
63.7854 2.33263 1.73632
67.2047 3.84027 2.9074
69.3787 2.87443 2.24427
64.6808 4.61231 3.80771
68.7373 3.85037 3.01162
60.6579 3.33052 2.50354
58.8242 3.00557 2.42684
67.8419 4.60436 3.69342
55.4877 3.6557 3.21893
74.5031 4.43237 3.24245
78.4205 3.68648 3.32523
51.8865 3.06667 2.55969
76.6203 7.27781 5.76899
53.9667 2.11411 1.66097
51.614 3.68748 3.12685
66.3883 3.57926 3.26138
58.5113 3.26786 2.64434
52.3084 4.27525 3.20603
57.2341 3.17101 3.32747
53.5853 4.78405 3.5326
64.4941 4.29563 3.58487
54.4874 3.54434 3.10722
57.2896 3.61199 3.57792
77.5182 4.8742 3.63873
68.3607 3.70625 3.29679
62.4075 3.12085 3.07356
57.1159 4.25115 3.36869
54.5181 2.26186 2.18865
72.9227 5.29604 4.06947
56.8785 3.52098 3.04885
58.953 3.10631 3.34924
62.551 6.21724 5.16482
50.5361 3.52482 3.0534
62.6497 3.51642 3.45748
82.8643 6.98187 5.87697
47.6831 3.15655 3.08902
65.2409 4.07176 3.41085
44.9944 3.98687 4.1794
70.9431 4.99737 4.28551
52.8153 3.55319 3.06132
53.6029 4.11127 4.40425
50.6914 2.7989 2.59974
59.8831 2.77729 2.15061
54.6302 3.47261 3.07919
58.274 3.73723 3.87268
54.5916 4.03702 3.74202
53.6521 3.82341 3.19608
56.7483 2.93788 2.95272
45.5465 3.50631 3.8172
61.2153 4.02802 3.95398
50.037 4.83178 4.07606
48.2709 4.4697 4.08109
58.2052 2.60362 2.86621
49.6054 3.06313 3.00778
51.4636 4.4466 4.15757
56.585 2.60874 2.80776
34.9285 3.99853 3.81264
52.8172 5.74715 5.5466
60.8657 3.8948 4.0627
50.2252 3.96234 3.70487
62.292 4.54341 4.94249
51.6174 5.08958 5.14591
57.4655 5.1165 4.66922
56.8014 3.50227 4.2724
41.6169 2.97417 3.01486
53.2337 4.46026 4.55918
59.3444 4.8038 4.76736
38.7041 4.76367 5.18203
63.134 5.45414 5.17299
48.0863 3.69192 4.28439
48.8894 3.62553 3.4976
56.6317 5.2831 5.52175
48.7182 3.88621 4.12494
45.9898 3.15992 3.39616
58.1814 4.40959 4.59076
45.1111 3.33271 3.34331
55.9964 3.22089 3.33963
41.1741 3.60386 3.6944
40.7725 3.75861 4.15022
46.7533 4.05517 4.28515
42.2466 2.68401 2.89527
50.7145 3.07436 3.68751
50.3916 5.92458 7.1173
51.211 4.18946 4.66099
61.5738 3.43656 4.09986
48.8621 4.79133 4.04312
48.0888 3.98165 4.19341
47.6929 3.2516 3.75335
37.2829 5.42695 5.65951
52.3446 2.61256 3.39578
50.349 3.67264 4.01118
43.908 3.29592 3.30221
55.5064 2.98331 3.33968
38.2235 2.72944 3.40134
60.5229 4.45072 4.44001
50.0152 2.64639 3.54577
37.3819 4.09851 4.63522
48.4472 3.30245 3.93523
43.6046 3.64388 4.53701
37.3389 4.52579 5.59853
50.0688 4.0225 3.82114
36.2962 3.44362 4.50776
45.0653 3.85181 4.86624
44.5595 5.93627 7.21461
44.3299 4.18477 3.79451
55.9169 3.25591 3.54967
47.2715 4.01005 4.64655
44.0174 3.77248 4.27452
50.7943 4.01306 5.58498
32.7792 3.02498 3.34424
41.9842 3.29076 3.9703
53.6047 4.00235 5.04963
39.6525 4.50632 4.87743
48.6584 3.01627 3.29642
47.4606 4.67886 5.95013
39.2618 3.60327 4.06224
41.3722 4.76847 5.95952
37.8157 3.0317 3.40209
48.2052 4.27155 5.68433
43.5053 2.61368 4.03499
35.4752 4.80068 5.80626
43.1936 2.83951 3.15241
38.3769 4.79147 6.15153
39.2129 4.76278 6.41424
47.0813 2.84216 2.9238
38.4875 3.96713 4.42658
42.3768 3.68912 5.15738
45.2318 4.28846 7.1222
29.5639 5.46799 4.81092
50.3143 3.49701 4.2005
34.5448 6.82034 9.9698
48.7393 6.00737 6.12859
45.2074 3.9783 6.08826
37.3428 4.49413 5.17804
40.9559 3.69012 5.10322
44.3503 3.90362 5.42719
33.2563 4.87027 5.61726
41.3142 4.31171 5.17502
35.8313 3.96201 5.25503
41.7473 3.82441 5.36921
45.3072 6.74938 8.34117
40.0269 4.50419 6.09468
42.0233 4.11008 5.3069
47.2224 5.81204 8.26853
29.9991 3.91196 4.83667
45.5352 5.55733 6.51596
36.877 5.78846 7.80979
42.2297 3.22684 5.08013
44.4249 5.67836 7.92512
31.2623 3.62503 4.54773
45.5303 3.65915 5.08112
38.2767 1.93597 3.7219
32.3989 3.95865 5.05514
42.5765 5.64564 7.91843
31.9035 5.36643 5.96042
33.0899 3.38059 4.87849
39.5466 5.07557 6.36432
33.5836 2.91909 3.93326
45.6399 5.06125 7.3208
39.5991 3.53643 4.81929
32.95 3.49789 5.87759
40.8891 3.75303 5.36282
26.5634 3.91818 5.02524
31.1429 5.7245 7.84859
37.4777 3.23767 4.05156
27.5394 3.596 5.64459
43.8767 3.76954 5.15733
41.5387 5.36892 8.15298
30.6633 4.44494 6.04862
43.4169 3.14341 4.98673
30.0127 5.60405 7.68476
35.4326 2.67336 4.26055
39.8288 4.55595 6.25305
29.9862 3.60213 5.12699
43.9913 4.06122 5.76471
41.5206 4.35713 6.58395
29.6671 4.90062 7.48209
38.9371 4.16825 6.50912
31.4994 3.69664 5.12637
35.8504 2.32297 3.97074
42.5908 3.36542 6.34217
38.4452 6.26405 8.80661
38.2917 3.65041 4.2538
39.0446 4.69248 8.35159
26.4096 3.94464 4.41537
42.7502 4.32717 6.14156
25.9507 3.05076 4.66359
34.4094 4.40913 7.55306
39.8603 3.40973 4.80438
34.3795 4.4385 7.76216
39.8151 4.03718 7.65652
32.087 4.91167 6.74812
32.3582 6.93994 8.32418
40.8876 3.49109 5.76372
30.162 3.84812 6.46615
34.858 3.44857 4.40002
34.7052 4.16507 6.7109
31.4913 6.6676 9.58915
40.1616 4.27872 6.16205
32.1002 3.87106 5.85448
27.3628 4.52518 8.06149
43.5688 3.59923 4.76707
30.3829 3.57168 7.57272
34.861 7.44551 10.4868
34.3546 4.49615 7.88123
27.8212 4.97383 7.24705
39.957 3.477 5.15966
32.7923 4.16934 7.33402
32.3582 3.76627 6.09479
37.5054 2.458 4.75513
27.4746 3.08647 4.84497
33.7891 4.99736 7.00447
31.4072 4.80565 7.56994
31.337 5.73899 8.70909
37.1975 5.30473 9.16074
34.5866 2.31342 4.45698
35.6285 6.49179 10.2965
40.2863 3.66502 6.50154
27.546 4.6651 7.22497
33.049 3.67822 6.46326
40.4401 4.6032 6.37434
26.4664 3.44548 6.47131
36.611 4.70927 7.01455
32.185 4.62037 7.18964
30.1576 3.01964 5.34591
41.4898 4.30705 7.95858
26.7069 4.38366 7.2317
30.5861 5.3617 8.82565
34.7948 2.5366 5.32592
28.806 4.08049 6.39454
34.1622 5.15435 9.16843
32.458 2.46415 5.18831
32.2113 5.21405 8.1529
37.3612 3.99696 6.51459
28.9992 3.28992 5.91105
35.2443 3.84393 7.83623
37.9639 4.46956 7.06704
29.1618 5.45675 8.77999
34.372 4.76481 8.56082
27.766 4.62195 8.58938
30.2632 4.2532 7.77937
42.2707 3.52396 6.25743
30.3398 4.08227 6.61364
35.8385 6.45425 10.2803
33.5065 3.48252 6.48263
28.0231 4.11759 8.2849
35.7913 3.99266 7.96958
33.183 3.33453 5.39654
25.9742 3.95404 6.47537
38.7463 3.76618 5.19304
24.1577 5.26837 12.0082
37.7202 4.30655 7.28067
33.8767 2.6674 5.20464
28.7147 5.14807 8.90413
40.1644 3.79065 6.05979
27.6742 3.3672 5.90686
26.054 2.67549 4.5689
37.2239 5.11613 8.97789
28.4512 3.84105 8.09076
33.758 4.6826 7.60175
28.8588 4.2765 7.44788
27.3417 4.87725 8.98736
35.3899 5.28717 8.82944
28.453 3.7582 7.43407
29.3716 3.55342 7.05595
36.3629 5.45368 10.059
19.9887 4.7114 9.93838
36.6107 5.5856 8.10155
26.9526 2.30034 5.33361
28.7109 4.66862 8.70893
34.1856 4.20503 7.89641
28.9253 5.99203 9.53248
24.1143 6.7178 13.4501
34.0468 3.1974 5.6787
23.2747 4.76602 8.56326
33.5492 3.98885 8.94799
31.798 5.19903 11.3985
25.3973 4.36546 7.88567
33.9474 5.29777 10.8556
28.7541 7.33624 12.7758
26.5137 4.17386 6.95302
31.5902 4.28443 9.03935
26.1936 5.28893 9.08559
32.0226 5.2818 11.2262
26.2817 6.32543 10.7526
27.9476 4.22615 7.82357
33.6452 5.3833 9.80459
28.6053 4.14606 7.34191
34.2787 5.81382 12.8602
29.0538 2.79704 6.10076
22.3025 4.69046 9.81863
30.1327 4.14334 6.80838
26.9701 4.84017 8.68695
28.9737 4.96589 8.95507
31.867 4.85726 10.6313
23.3777 4.9435 9.29835
28.4273 6.49274 11.7897
32.6162 4.31598 12.3511
23.5116 5.89923 12.5589
34.2538 7.43987 11.5568
29.4065 3.84135 8.30904
25.1375 6.15962 10.3976
34.208 4.00416 6.9741
25.2064 4.07983 10.63
25.522 4.76371 7.59902
30.8082 4.16582 10.3945
20.9719 5.07884 9.08055
29.7438 3.92043 7.01223
25.4732 3.83758 9.40173
23.3226 4.47604 7.64077
30.306 3.15762 7.09953
27.5827 5.06635 10.9493
28.2361 4.01347 9.69258
33.2994 5.07305 9.37365
21.8166 3.75588 8.26359
35.5024 7.17491 16.6455
26.1764 6.65655 13.5146
24.9664 5.25675 8.85533
32.8831 5.23745 12.9754
23.6195 5.41814 9.04178
29.5282 4.64594 9.92915
25.3461 4.51747 9.15703
21.5842 4.414 8.12876
33.0427 5.00408 10.6659
29.0847 5.43817 11.7696
24.0389 6.18017 14.6318
38.3151 6.06683 12.4944
21.8609 4.42818 10.6897
29.892 3.79945 7.23341
29.1131 4.16608 9.18054
23.8675 4.15653 9.89928
26.2458 5.71719 10.1215
25.2167 3.97015 9.87306
29.5291 6.93851 10.8532
32.0268 4.65532 11.2217
22.3747 7.04359 14.5943
24.2676 3.60237 7.9922
27.7945 6.53518 12.6625
22.0782 3.08075 7.33246
28.4609 2.81607 7.23014
24.6366 4.1755 9.46677
25.8403 3.77472 9.76057
33.9665 7.19868 14.6266
21.7638 3.71876 7.11858
27.0635 7.07958 14.819
33.1056 7.40844 18.7853
21.5539 4.52419 9.59896
27.8292 4.99323 10.6761
24.0606 5.2674 8.46087
19.4982 4.58511 13.5955
28.2483 4.55207 11.5187
22.569 3.90336 6.56173
25.7382 5.30004 9.65696
26.4287 4.19477 10.1596
22.8401 8.13888 20.8303
30.3495 5.98348 10.7542
20.9232 5.35617 11.4635
25.0519 4.00449 9.89247
30.2158 6.12872 13.1565
21.3996 4.04012 9.63996
28.8771 4.09923 10.3072
23.5391 4.99907 12.5051
16.3379 4.40546 11.1108
30.3509 5.61296 11.774
22.2538 4.20434 9.84329
27.0929 5.09262 10.701
29.4479 6.07187 12.9079
19.0024 6.97762 15.9008
24.9204 3.47185 7.90952
24.8315 5.44623 11.6465
17.1647 4.59014 10.1878
28.1589 7.0592 15.7374
21.7568 3.92078 10.0111
20.7341 5.21991 16.374
30.7009 7.19465 14.6872
24.7419 4.18525 9.7529
26.4745 5.91442 13.1491
24.0809 5.97615 11.7856
14.8122 4.15506 12.8918
30.3763 5.93183 13.9824
23.6567 3.65192 7.79271
23.6717 3.94154 9.77196
24.5475 2.87998 8.26806
22.3679 6.49462 16.8142
29.5923 5.25175 8.9735
24.2037 7.41685 19.353
21.3131 4.61614 9.8005
26.2083 3.57467 12.0947
18.167 6.61087 15.1127
20.3452 4.99872 8.30089
26.4194 5.24508 15.1417
19.7079 7.1569 18.4481
26.9657 5.68356 12.0507
22.5493 4.46173 10.547
21.4118 3.29187 8.826
26.7006 4.98515 12.9004
18.5999 6.2718 12.8408
23.4495 6.77433 14.585
28.0841 4.67013 15.4029
19.4055 6.52907 13.2896
25.5037 5.04954 13.3016
21.179 5.28108 12.266
18.8173 5.44033 12.856
25.7974 4.07968 11.7668
19.1364 4.02927 9.46565
21.7749 2.94786 6.22416
27.7009 4.89504 10.9015
20.6856 4.49705 10.6543
27.6232 5.22721 14.1861
25.8714 4.79973 9.44257
18.5426 3.58393 9.80457
27.3802 4.21166 10.2717
19.0128 5.20164 13.4998
25.7017 5.55869 11.5463
21.062 5.73957 13.7313
18.0838 3.40793 8.37245
25.3624 5.4644 12.4345
21.3404 4.28692 11.118
20.205 5.41468 11.9862
27.6093 4.01672 13.1467
20.8798 3.99503 13.643
28.0878 8.08597 15.3697
21.8252 6.37049 13.1404
16.2128 6.5707 16.1959
24.3083 5.16035 14.5908
19.8188 5.46195 15.0631
20.7256 4.66269 13.4689
24.6599 3.77549 12.629
21.9455 5.76024 11.9478
18.8759 4.20412 11.731
23.2097 5.08183 14.7564
19.1418 4.1715 9.98066
23.6681 3.95125 12.2386
24.4086 7.00727 12.8953
16.2321 4.05704 10.7504
26.6159 6.12723 14.4315
19.4203 4.62258 14.2989
19.4918 3.95957 8.92594
21.8745 3.68122 8.89219
18.2172 5.66523 16.5044
29.9448 4.50899 10.061
22.6719 6.63825 17.2155
21.2598 4.79227 15.5472
25.5242 7.16532 17.7741
20.1732 6.89744 19.2889
23.0107 6.02367 15.5744
20.6856 6.848 16.7307
17.9038 6.36635 19.3283
26.7816 4.70076 17.2728
21.2438 5.27042 13.5469
17.6269 6.42215 18.7588
31.3803 7.35919 15.0562
17.0609 5.57209 15.5566
26.1363 4.73689 11.5383
22.746 4.32292 9.58963
18.426 6.26129 13.9043
23.9944 4.30856 9.96639
17.9014 5.53402 16.3141
16.7199 3.01176 9.86595
26.3068 5.05339 15.3267
15.5674 7.24907 17.0387
22.439 4.49656 11.4714
23.7482 4.98905 14.4229
16.1238 6.59832 17.1466
24.3688 5.76891 11.1285
19.2159 5.24321 18.9837
22.6024 5.39401 12.6286
24.6057 4.29962 11.6608
18.2822 3.30794 7.19757
20.9915 4.86799 16.2722
22.804 4.35757 12.0105
16.7373 5.77718 15.3538
30.0243 5.28254 15.8082
17.4621 6.80284 16.6054
18.8178 5.37178 16.7587
23.6476 6.63705 19.6924
17.601 5.71779 15.2701
27.0922 5.5055 13.1931
22.3862 3.85395 8.91045
17.0417 5.40287 17.7895
22.9473 2.97687 8.91304
17.7981 4.51815 9.74048
19.115 3.45 10.0079
23.5048 5.66238 13.6041
17.2806 3.55554 9.34865
21.3627 5.56455 16.0828
26.0918 3.84263 11.5811
13.8436 6.42067 19.6127
26.8698 7.75878 21.0533
15.1022 8.61481 20.9861
20.6953 4.57833 11.9708
26.638 4.37522 9.0627
16.4641 5.06101 15.7184
23.8783 4.57464 17.0314
20.2354 6.59503 12.4958
16.6175 3.8313 9.47981
21.5567 5.08442 19.9026
19.9551 8.10479 19.6349
20.0399 5.80312 18.5885
29.0566 6.11183 13.0864
15.8044 5.50536 21.7766
22.2412 5.70601 14.6026
24.6678 5.92788 18.5195
18.7198 6.24455 14.7016
24.4651 2.26429 10.7115
19.0746 4.3679 10.479
20.3227 7.16417 17.8052
23.8841 5.76178 18.3475
15.6062 4.65491 12.7164
25.1414 5.90169 18.5813
18.8108 7.10971 16.9212
19.971 3.8925 11.02
23.8799 4.79037 14.7105
19.8491 5.33874 16.5233
20.9606 6.12291 18.9378
23.9071 4.19476 8.65044
14.7631 6.81652 23.6162
24.37 5.73044 18.1099
19.1384 5.76997 10.8691
14.2228 5.70852 17.4731
26.4828 4.34543 19.9363
16.4356 7.84527 20.4587
21.3969 4.16532 11.4639
21.1531 5.48016 13.0974
17.8339 4.05836 10.5275
22.9756 2.69934 6.25911
18.5966 4.89073 18.2647
18.1309 4.13621 15.2122
27.3664 4.52214 9.70794
17.4857 3.44026 13.2805
24.9778 6.64862 16.6537
19.2926 4.52915 12.1951
15.1064 5.29388 18.2928
20.2125 5.39982 19.2187
15.0257 4.24623 13.0064
17.913 5.27773 13.3387
23.1461 4.64988 13.2899
13.7253 4.8281 12.7525
18.5932 6.72443 20.0265
22.9471 5.22105 18.5896
16.7591 4.57297 17.2845
20.2224 7.46829 20.954
16.7653 5.35869 21.2879
18.0076 5.46062 18.7583
20.9797 6.04321 13.3642
15.7405 5.87355 22.5062
20.0055 5.28155 12.2237
16.1588 4.21252 14.4739
17.3523 7.38754 18.6349
21.3701 7.03268 18.8557
18.4929 5.36197 16.4305
18.3493 4.99759 13.8004
22.375 8.57128 20.9289
17.1589 6.64816 21.2822
20.1304 4.27456 14.8101
21.0815 8.42034 29.0254
15.5281 5.16211 15.1559
18.9444 4.37307 18.3757
19.877 7.03015 14.9682
14.221 5.35858 13.2947
22.3194 5.40092 19.8161
14.2608 8.1611 27.2176
23.1623 5.93994 19.7818
23.2067 9.05327 27.3076
16.3163 5.42471 15.5115
23.1624 6.76384 23.5105
18.8117 5.75087 23.9927
22.7693 5.91092 15.8686
26.663 5.22994 13.7697
15.8793 4.90055 17.3728
18.7484 6.08775 18.1208
20.4308 7.53263 24.207
17.4157 7.0404 18.244
21.3765 6.10374 17.1099
16.4471 5.36653 20.7676
20.221 6.70292 19.1913
26.308 7.84142 28.1064
13.8833 5.273 17.1309
19.1728 6.96027 16.6618
21.258 5.47775 15.8702
14.6012 6.51905 20.7234
21.4813 3.76009 14.6804
15.8822 6.57792 17.5124
18.6572 4.60089 19.7543
21.0698 6.68643 16.1839
15.0524 3.16186 13.7422
21.0724 7.01482 24.8382
19.4053 7.83734 21.8012
19.3357 4.04822 14.5559
23.7574 4.74642 13.5963
16.3218 5.03235 14.1321
14.6228 4.63632 17.8077
23.5516 3.85091 11.496
13.8348 4.95825 10.6243
20.3321 5.5495 19.0392
17.7285 4.027 11.2658
16.7263 4.44341 15.0743
20.7062 5.99117 16.6188
19.057 5.26342 15.0437
17.9163 3.73565 18.6092
20.0495 6.27045 14.2788
14.9962 3.44233 11.7335
23.2022 6.45751 26.095
21.9716 4.55859 12.172
16.5584 5.27516 16.1558
22.7593 4.75045 18.9201
13.0046 4.20155 12.5652
18.9325 6.2299 17.3586
21.1977 5.25541 18.598
13.8151 5.63469 19.13
23.5006 5.25141 15.9287
17.6601 3.40108 13.836
17.4421 5.03683 16.0725
19.6099 4.19092 15.1405
17.0551 5.3208 14.4548
17.1949 3.8193 13.2899
18.6321 4.81194 14.42
13.0838 6.62928 19.6907
20.4802 3.59941 11.8869
17.4781 4.85144 14.9715
16.1555 6.4499 22.9609
25.6053 5.94671 19.5501
13.2456 6.50008 23.4273
18.4769 4.54331 12.5461
19.7666 5.84754 20.8416
15.411 5.65266 22.1465
28.1615 7.42116 24.9356
16.4512 4.72568 12.5453
15.1763 5.92258 18.343
21.3644 5.55959 19.4688
15.6837 3.68734 14.7044
18.9098 6.7539 16.2915
20.8704 6.11478 25.04
14.9098 4.67507 17.4032
19.7077 3.97549 10.0032
19.3077 4.67963 12.1322
15.3292 6.42057 22.2242
20.1606 7.58737 22.8876
11.7815 6.06012 24.3614
15.6557 7.7128 20.1688
20.6178 4.01389 16.5397
12.057 5.77972 22.1742
23.7533 4.836 12.7977
16.761 5.2523 24.9942
15.9215 5.79036 19.1895
19.3223 6.61512 19.3919
15.6959 5.80919 15.9964
19.3811 3.8714 18.6708
20.802 7.16765 24.2828
13.9226 6.94826 19.7887
20.1895 7.1408 20.8052
18.439 3.86212 13.1019
15.406 4.26162 14.4918
21.4547 4.97962 19.6414
13.879 6.51668 19.7822
18.7172 5.91728 19.0744
21.0186 7.41137 21.9258
12.1615 3.15999 17.866
23.9464 6.53528 23.7147
18.3277 6.32458 17.2877
16.5967 6.29437 23.3359
19.3678 5.2571 15.9548
13.4617 4.6117 23.2442
19.6677 6.19346 16.5272
16.8154 4.8886 23.4301
14.1789 6.98527 15.275
21.9885 4.97668 20.6615
19.3603 4.93511 14.9008
16.3653 5.57695 18.7956
21.0409 4.09613 11.9009
11.8068 6.89068 22.1575
17.5429 6.01023 21.6799
20.3092 5.30269 25.7012
15.1749 7.76994 20.889
18.5296 5.37616 16.7773
17.0623 4.29953 24.8214
19.4837 10.1362 24.43
18.8592 5.86582 23.2333
13.18 6.29881 15.7667
17.2477 4.2736 23.6705
16.611 6.14135 18.004
13.8949 4.58732 19.4399
18.0044 5.96045 16.3419
13.7746 4.85737 23.7133
19.0578 7.28519 19.7013
19.5761 4.21585 14.6457
13.4837 5.46139 19.7505
18.8033 5.97637 18.0517
17.306 5.75788 15.2991
13.5968 4.08891 13.8196
20.6314 4.35463 18.9652
14.8307 5.90659 32.9241
14.6001 6.34015 11.6969
19.4895 5.20125 22.7059
11.1699 4.67413 27.4602
20.1345 7.36369 13.3789
14.6299 6.79796 21.1347
14.398 4.5972 15.1442
19.5705 3.09427 10.1006
13.6521 6.2549 18.1582
15.4646 4.6691 20.0754
23.4673 5.62699 22.4939
14.3778 6.50471 20.8477
21.1209 3.66845 16.8095
17.4263 7.00969 15.2848
13.9996 7.15205 32.7607
23.8214 5.4733 16.7185
13.7372 4.41629 18.7299
18.0801 8.99503 23.3936
18.6139 4.21839 19.5885
13.5901 5.311 19.1958
19.1448 4.76519 19.7544
18.1798 4.24964 20.1512
15.1339 5.23279 12.6865
19.4797 3.39046 11.7787
15.9 4.98724 20.373
17.0527 5.33359 18.3431
17.5745 4.86343 17.7017
12.6968 6.21137 24.4825
19.6787 5.57471 21.3675
17.7726 5.44039 22.1054
13.2994 9.21598 33.2065
21.5546 6.97011 29.3789
13.7136 8.53232 18.1504
16.9437 5.05441 23.4305
18.3575 3.8384 11.1915
12.9119 3.80141 19.6085
18.7242 5.52754 14.798
14.7647 6.38951 25.9722
14.3198 7.53241 28.9808
24.5775 6.39219 22.1058
16.7357 9.68385 35.673
15.4543 6.42426 21.6742
19.1615 5.76907 20.2882
15.7618 7.41234 20.9223
19.567 3.90379 20.0728
16.1973 7.12047 28.4908
15.7981 6.86996 23.6416
22.0905 7.90185 22.2288
10.049 5.33701 21.42
15.8635 6.53404 23.0737
18.993 5.66814 21.9858
9.59585 3.40721 13.7129
17.004 4.9187 21.1844
13.6838 5.17198 15.3709
14.5214 4.92156 22.606
17.4989 6.68749 22.982
13.2318 5.94914 22.6948
17.1576 6.08457 24.451
16.0286 6.38611 17.6306
10.881 6.90522 24.6363
17.6039 4.09252 15.5085
15.886 4.55691 21.0686
15.3284 5.31459 15.1871
18.1164 4.22252 13.8718
12.0596 4.76261 22.5336
18.3068 5.64176 18.2082
19.1021 7.23307 24.8626
17.7544 5.1591 25.9535
21.8549 7.66338 33.7566
16.7954 8.26694 22.5474
16.0526 4.33598 18.4595
20.7679 9.93276 30.2227
13.5638 6.21323 31.0957
21.0092 7.17477 20.9413
17.7328 4.22527 11.0125
12.5519 4.67984 20.2542
19.7784 4.58949 15.533
14.1458 5.04478 19.1418
14.3262 4.43812 13.2489
19.6403 4.62556 23.2029
8.42639 5.6577 19.3193
20.2155 4.70193 15.9329
17.5524 5.28728 20.2579
12.4987 3.9632 18.194
22.0315 7.93231 20.4376
13.6568 4.83471 27.1637
15.7253 4.64338 17.6337
18.819 5.538 16.7865
13.6949 7.08569 28.5553
17.4218 4.82268 20.3861
14.9403 7.92974 24.7958
13.3577 5.72825 21.9321
24.7545 5.48237 25.9768
16.2455 8.89447 28.6157
16.4194 5.41634 21.7995
18.3456 7.44384 27.7289
15.2926 5.70407 17.2709
18.7126 3.3018 18.0526
17.7496 6.18136 24.4745
15.0521 6.30031 17.0524
21.0073 6.77342 22.5438
12.1291 5.70123 24.393
16.9001 3.77988 15.9503
17.948 5.41887 25.6214
14.4781 6.23074 20.8453
18.0792 7.08921 31.8766
19.2959 7.95601 19.4424
10.502 4.82645 20.1323
20.4654 4.20319 23.5753
11.0751 4.29832 20.9401
16.341 6.72994 13.6208
19.6472 5.21126 26.1644
11.54 4.81026 12.494
17.8327 6.45403 24.4217
19.2913 4.64876 19.9321
13.6293 5.86955 21.6106
23.1234 6.07315 19.4504
13.1057 6.08906 24.0869
17.4011 4.90445 22.4401
15.2419 5.19441 20.2679
15.7314 6.10291 26.2264
16.792 6.34123 27.1371
15.4811 6.56066 15.8381
13.3959 5.75188 21.2449
17.6615 4.76687 18.7738
13.4325 6.54461 30.1618
15.8687 6.1784 27.1903
17.4971 7.26057 27.0145
14.0496 7.40735 28.1998
20.6543 7.09179 21.2811
14.5098 7.61532 22.8564
14.954 3.82919 21.6546
20.0484 10.5345 36.2606
12.6509 5.54932 16.6324
14.6111 3.05821 20.3385
18.4241 6.19809 26.0768
11.6519 7.91474 29.0682
17.6692 4.9793 10.0249
14.6391 6.82852 33.9317
15.0807 5.39991 19.5089
19.3179 5.59838 18.5568
14.1984 7.68476 35.9261
14.8746 9.33231 25.354
19.625 5.41772 21.4717
15.0946 6.89761 30.0372
16.4071 6.20176 19.7075
16.102 4.26697 20.583
12.487 5.66773 18.6156
19.421 4.64786 13.4988
12.0975 3.06705 20.0299
17.5393 5.97319 17.362
17.958 5.45311 21.3431
13.2676 7.01292 25.2064
21.7153 6.02727 25.9708
17.2964 5.39861 24.8938
15.8829 9.43383 26.2279
18.8783 4.54069 14.7366
12.9997 3.93386 17.6724
14.8016 4.10315 19.8221
20.4506 5.83854 17.1794
11.5875 6.15478 23.0552
20.0316 5.83232 20.1425
16.5294 5.92048 26.9284
15.4694 7.61185 28.216
18.164 4.90372 25.6524
14.3881 7.25131 28.3737
15.5417 4.69855 22.4777
17.3745 6.66554 25.0919
12.0591 5.97626 23.2048
19.512 6.03839 20.8255
12.5062 5.56021 18.2211
16.2297 5.66575 24.4826
19.0217 5.15693 18.4263
11.133 2.84139 13.7308
14.8648 4.8954 20.9265
16.7447 7.34368 24.0228
9.45343 5.7713 21.1719
19.0393 8.35589 24.0801
14.9005 4.78909 28.2956
15.3736 5.43791 21.0423
20.1242 7.43515 26.6775
10.7584 4.18448 25.7496
17.9327 6.67376 22.0893
17.4477 5.7544 17.3772
11.8361 6.23032 20.8675
18.8547 5.1933 31.5815
16.14 5.72275 19.5024
13.711 4.56551 16.1726
17.451 6.68227 25.2019
13.7907 4.90851 20.7536
14.3918 6.99815 22.5312
16.6284 5.99817 21.5017
10.9571 5.28297 31.9724
19.539 6.33813 19.7623
12.6558 6.90608 36.0979
16.4735 6.11853 22.112
17.7317 5.91702 24.7548
12.3333 5.22411 26.4083
17.0834 7.06164 21.1157
16.7877 5.85306 19.485
11.139 6.85039 24.4817
18.4447 5.35226 26.2221
14.1715 4.75173 15.8279
14.988 3.69005 19.1658
20.5201 7.26625 40.6367
10.5323 10.4484 28.5114
17.2901 6.21829 19.0533
15.8848 6.60388 22.9414
11.5853 5.22631 30.2986
21.1535 5.13313 11.0264
12.6394 5.46175 32.8971
14.0416 7.84766 32.2611
18.0111 8.98124 25.5433
12.6513 7.27016 29.8807
16.5467 10.0397 27.9068
18.3757 4.95703 28.9866
14.6744 5.73581 13.9354
20.97 7.60976 38.0043
10.4286 9.4794 37.1364
16.4967 9.72921 30.35
18.3873 4.8341 26.6331
10.3745 6.90294 24.9992
18.1518 7.44492 33.176
17.7698 9.39952 29.5535
10.4915 4.70679 23.7636
19.0688 6.75899 28.0848
11.2023 6.54736 29.1209
15.7536 7.5053 24.1643
19.5304 5.05022 20.2294
10.4442 4.09497 17.2712
16.4566 4.94349 19.1484
13.0447 5.24171 19.4168
12.9938 6.10845 27.857
17.9385 6.64491 30.0649
13.4109 7.45401 38.4714
19.2101 11.0772 37.0267
17.344 5.39022 17.6993
12.4737 6.99866 26.1154
18.5465 4.98927 20.1546
15.4752 8.26528 24.8065
12.643 6.41139 24.7935
21.3039 5.19689 21.6818
13.5857 6.76916 23.7392
16.2618 6.57679 24.6926
18.4128 8.16085 37.0512
11.6332 6.14244 21.9135
17.9904 3.05948 24.068
13.2882 10.9612 35.2579
13.2256 5.56437 27.7939
21.1039 7.9268 26.7175
14.0307 6.09522 20.748
16.4947 5.15769 26.2427
19.0039 6.2521 19.2434
12.8041 4.90642 22.9078
19.7611 6.84078 21.8237
14.0538 5.35046 24.5766
12.8718 5.68239 18.2015
17.0571 6.39595 22.9226
12.8619 6.06289 38.9844
18.7599 8.34958 29.744
21.3322 6.23176 25.7949
12.6015 6.33475 17.9357
17.1877 6.05049 16.2843
13.5105 3.37606 22.6215
11.9497 4.48691 18.7043
17.467 5.14626 24.6642
13.5907 6.28245 25.9196
15.6758 9.04276 22.1699
16.1801 2.86161 19.9523
9.20399 4.79603 21.2563
16.2439 4.97315 17.8528
12.5852 6.55975 24.244
14.5753 6.73271 25.0491
18.0324 4.22892 25.7859
11.9771 7.37544 32.9835
14.9099 9.14552 30.6739
15.2672 4.62709 18.3722
12.0606 6.62301 22.0615
21.1449 4.05739 20.6431
11.8787 6.33698 22.8544
14.0001 5.58844 22.9934
15.5255 5.58562 28.0969
12.8251 7.04459 20.4719
16.3804 5.75688 24.615
17.9656 6.44796 30.4238
11.2775 6.91043 27.7204
19.0874 7.42056 27.2387
13.8677 6.53594 23.2482
15.4611 5.42632 24.5554
17.3759 4.84757 23.6903
13.7256 6.98114 19.1382
16.9715 6.31754 26.137
16.7065 5.15335 28.1068
14.6277 6.8311 23.3862
20.1426 4.83538 18.6684
15.4909 4.43707 13.9005
13.4171 4.41025 20.4957
19.534 5.26574 32.8663
12.739 8.20656 29.1454
19.917 7.13068 31.2616
19.1419 8.98068 22.6684
10.7139 5.036 19.8677
16.7852 7.14493 37.0765
14.0363 8.40162 31.0549
16.939 5.83725 17.6305
17.313 4.43538 17.5466
12.7742 6.06741 14.115
14.9572 3.68493 24.7871
15.0544 6.67702 22.1993
11.9735 4.17434 21.1818
20.7141 5.18238 25.3766
15.1006 5.92348 22.0301
14.5556 5.09985 10.7682
15.8062 3.87749 22.2812
12.2062 6.90096 22.8294
17.189 5.29738 23.7029
15.1633 5.97838 27.7365
10.0579 7.20184 28.5487
19.0751 4.99066 21.2457
11.6522 6.82492 26.725
16.8714 7.77258 30.5474
18.3233 5.142 26.5898
12.3303 7.44838 26.6258
17.0327 5.62485 21.1769
17.0808 8.66388 38.7664
11.0311 7.08366 23.717
17.6414 6.66828 29.716
11.4327 6.17336 21.5424
16.0658 7.10916 34.1703
19.2941 7.96077 27.7535
16.2508 0 0