# pn-170911/RbIIA-25-RbIIA-1280-1959.psd
# Power spectrum* (dif=0,1,2) (really just |FT|^2)
# NOTE: only the first half! (symmetric)
# weeks: 1280-1959
# 1013 clock-days, 389 excluded
# PSD: 1441
20717.7 0.471518 0.0117391
943282 21.1613 0.00585573
3.05757e+06 57.6385 0.00660928
640635 20.507 0.00650466
373614 19.8524 0.00715933
175885 13.0155 0.00711051
131388 13.6477 0.00802234
82499.6 10.8954 0.00807166
66665.7 11.193 0.00923611
48947.8 9.87481 0.00951071
38272.3 9.94512 0.0100966
31101.9 9.1736 0.0109022
26379.8 8.91409 0.0113755
22350.1 8.76534 0.0122861
18715.9 9.08392 0.0146247
16736 8.64339 0.0145483
13489.2 8.33234 0.0154795
12200.9 7.92397 0.0167751
10753.6 8.39727 0.0188841
9813.37 8.47618 0.0197314
9195.12 8.46155 0.0217125
7955.2 8.39791 0.0226263
7398.27 8.18695 0.025008
6603.73 8.22885 0.0265535
6015.97 8.23815 0.0279145
5679.83 7.85537 0.0287343
4888.83 7.42644 0.0296107
4806.08 7.76742 0.0331404
4413.33 8.04814 0.0355752
4015.18 7.9288 0.0369164
3876.9 7.86941 0.0406349
3761.07 8.16179 0.0429022
3452.29 7.73574 0.0447382
3118.23 7.57312 0.0440676
3061.54 7.60902 0.0469332
2909.59 8.10074 0.0532098
2523.61 7.5968 0.0530537
2603.75 7.6949 0.0540957
2459.64 8.09649 0.0606028
2200.3 7.3762 0.0611222
2153.99 7.64343 0.0634745
2004.35 7.38126 0.0658266
1906.2 7.79203 0.0722802
1833.01 7.43663 0.0725649
1842.96 7.76707 0.0766991
1712.19 7.35521 0.0768213
1605.75 7.63025 0.083522
1525.12 7.4585 0.0820163
1416.21 7.04851 0.0823757
1432.87 7.76418 0.0943247
1390.54 8.04493 0.102735
1319.47 7.8343 0.101877
1242.22 7.60652 0.103567
1247.74 8.06576 0.116184
1165.05 7.36404 0.106414
1131.31 7.39241 0.112615
1079.2 8.00509 0.126163
1078.84 7.79709 0.12652
943.984 7.53743 0.126056
963.001 7.89793 0.136835
984.813 7.79559 0.141966
887.824 7.11131 0.129959
865.35 7.59665 0.147815
855.773 7.49493 0.14732
858.213 7.58173 0.149249
800.901 7.94178 0.168071
799.247 7.57976 0.165984
783.551 7.77973 0.17254
673.732 7.42204 0.16702
748.8 7.93564 0.18803
700.296 7.01837 0.172653
674.834 7.84858 0.191848
659.667 7.51818 0.19047
648.887 7.47311 0.195564
670.865 8.13877 0.217719
580.748 6.99029 0.193254
627.252 7.97636 0.226815
589.936 7.93403 0.23216
514.756 7.10704 0.211335
517.672 6.97973 0.213972
521.975 7.26948 0.224835
517.119 7.36593 0.240083
488.905 7.29221 0.236755
474.653 7.4521 0.253336
451.91 7.21548 0.24833
475.17 7.46407 0.262025
471.929 7.83053 0.282661
423.95 6.91965 0.252484
417.891 7.22413 0.271674
433.896 6.97553 0.267976
410.477 7.19279 0.285986
396.067 7.24239 0.290082
407.393 7.61634 0.311894
388.955 6.99929 0.295615
367.798 7.02483 0.301399
359.238 7.19182 0.316008
352.012 6.92859 0.307928
347.651 7.31801 0.337737
329.464 6.96695 0.32635
340.709 7.18628 0.335438
309.911 6.62382 0.323689
328.656 7.30121 0.362009
330.871 7.52069 0.373856
308.094 6.98075 0.357113
310.981 7.50944 0.390342
297.15 7.08399 0.373935
302.274 7.08815 0.38005
289.838 6.95931 0.385446
290.69 7.32226 0.409664
294.323 7.41254 0.415621
280.425 7.3152 0.421999
276.848 7.30707 0.432702
269.507 7.09913 0.424221
253.077 7.15957 0.440322
249.413 6.86739 0.42989
252.533 7.46559 0.475942
246.891 7.32567 0.470059
234 6.67967 0.432954
249.047 7.57972 0.508067
233.283 7.13178 0.480154
223.415 6.80222 0.470253
213.427 7.31405 0.517752
219.08 7.13216 0.501829
219.671 7.11257 0.515031
229.59 7.3755 0.536518
212.321 7.32484 0.545697
222.941 7.3024 0.555415
201.184 6.8349 0.522539
211.927 7.46718 0.590335
200.174 6.84148 0.540023
191.05 7.04211 0.57163
193.353 6.8905 0.565899
196.719 7.46236 0.619639
190.027 6.91046 0.58708
180.963 7.02378 0.603839
178.136 7.36481 0.643203
179.563 6.75365 0.593548
174.166 7.17776 0.644599
170.525 6.64574 0.605732
171.136 6.97864 0.644961
161.995 6.91288 0.645201
163.344 6.98011 0.663509
170.987 7.18113 0.68152
165.282 7.18727 0.699797
154.076 7.03386 0.69721
156.72 7.01046 0.706642
157.651 6.82769 0.700944
163.112 7.20556 0.739511
156.926 7.17941 0.751949
149.326 6.94716 0.73286
150.647 7.12332 0.763812
139.749 6.52703 0.715806
149.817 7.3249 0.804422
139.512 6.90244 0.772451
137.684 7.01395 0.78513
137.63 6.80526 0.777379
133.749 6.8524 0.782106
133.838 7.25389 0.854006
140.578 7.15092 0.849171
132.736 7.46273 0.895693
135.619 7.56937 0.914669
130.617 7.23907 0.889991
123.756 7.25545 0.907361
122.453 6.85194 0.855401
116.688 6.95269 0.896646
112.057 6.47445 0.835944
119.792 7.04169 0.919494
113.364 6.78861 0.914563
117.644 6.85476 0.908157
117.442 7.07548 0.962431
121.006 7.52508 1.02011
114.291 7.28892 1.01425
114.808 7.2072 0.992073
110.258 7.07144 1.00799
117.82 7.69542 1.11004
108.492 6.85318 0.990533
108.259 7.27057 1.0725
109.744 7.14963 1.04946
106.904 7.58792 1.13484
105.341 7.1358 1.08485
103.833 7.17599 1.1019
99.6368 6.95225 1.07623
106.576 7.10634 1.10218
97.3144 7.08029 1.12125
97.3126 7.0422 1.12536
98.2483 7.01877 1.13828
95.626 6.92768 1.12114
97.2997 7.10168 1.17383
95.3501 7.22559 1.19723
96.4403 6.9574 1.16902
91.8848 7.22864 1.23092
93.9074 7.12653 1.21388
87.2906 7.21835 1.25057
88.4149 7.27897 1.27494
86.3919 6.8604 1.22759
88.8989 7.01119 1.25819
87.8652 7.36164 1.3297
83.4667 6.87962 1.25596
82.5583 6.82285 1.25748
90.0517 7.26936 1.35829
81.9104 6.85165 1.28074
80.1857 7.26074 1.38211
79.7826 7.04477 1.35058
83.2995 7.11172 1.37937
83.2182 7.30903 1.42979
79.7722 6.88853 1.37359
76.7685 6.79538 1.35006
78.0326 7.04342 1.41347
79.8283 7.44316 1.51074
78.9819 7.40433 1.51881
75.6066 7.41952 1.52612
74.9414 6.95603 1.47199
75.9805 7.19879 1.50139
75.8283 7.12861 1.55065
73.7076 7.02933 1.49867
72.3462 7.10183 1.54131
71.9888 7.07803 1.53552
73.1106 6.82188 1.52193
71.3534 7.04188 1.55918
69.8444 7.17062 1.62499
68.4081 7.02168 1.58521
70.7998 7.27996 1.67363
70.9336 7.05822 1.60113
67.1603 7.28482 1.70779
64.9169 6.97076 1.62859
65.8303 7.30337 1.74199
67.4272 6.91612 1.6601
63.7455 6.70625 1.62001
65.8988 7.18518 1.75215
66.1029 7.27811 1.77438
64.2651 7.12024 1.7429
63.7638 7.43004 1.85164
62.1362 7.31965 1.85439
61.9228 7.10969 1.8067
63.7113 7.13803 1.86118
63.6531 7.18896 1.79529
60.8051 7.34845 1.91754
60.5952 7.31802 1.91603
60.0687 7.01889 1.86674
61.9328 7.54371 2.01218
58.8439 7.37409 1.97339
57.8079 7.15444 1.91874
55.8109 6.81006 1.85846
57.8264 6.9972 1.94721
56.9909 7.13464 2.00526
56.3608 7.2781 2.02622
56.7408 7.48362 2.10243
56.7479 7.15889 2.02987
52.4481 7.12837 2.01552
53.869 7.08088 2.04189
54.955 7.27214 2.12758
54.3635 7.08667 2.04698
55.8784 7.43729 2.19698
53.5311 7.35513 2.18244
53.0244 7.20841 2.14858
52.2418 7.5836 2.27767
50.7865 7.28074 2.24661
52.1599 7.32313 2.25858
51.7757 7.09137 2.20179
50.8226 7.41368 2.30545
51.0047 7.06919 2.25053
52.6848 7.12074 2.26547
49.3429 7.20226 2.28105
45.8307 6.95169 2.24008
51.7318 7.39255 2.41046
46.4205 6.91492 2.26551
47.486 7.04174 2.28749
50.1112 7.67085 2.551
47.0091 7.27877 2.44344
49.2617 7.05197 2.35301
48.4577 7.49953 2.53309
45.7558 6.97341 2.35261
45.1942 6.80357 2.34397
42.5788 6.76966 2.36343
46.0565 7.38235 2.5529
45.8597 7.23796 2.50504
42.953 7.01112 2.51962
45.1783 7.37253 2.60788
42.3965 7.33328 2.62209
44.1651 7.36952 2.6043
42.6612 6.98393 2.54629
45.8144 7.86072 2.88665
42.261 7.16617 2.65366
43.5288 7.14517 2.6222
41.9782 7.03157 2.61936
42.4617 7.26467 2.73037
40.4989 7.0862 2.75167
42.6095 7.11684 2.73144
42.2762 7.37339 2.78483
41.2917 7.5182 2.89266
43.1093 7.77447 3.02026
39.3502 7.14704 2.79663
40.6095 7.30674 2.8851
41.5339 6.88867 2.73528
40.3745 7.29176 2.88318
41.2827 7.43518 3.02238
38.7714 7.30818 2.93531
39.7951 7.05839 2.90123
41.0647 7.58827 3.06379
38.5405 7.07629 2.91119
38.4534 7.23143 2.93906
38.8118 7.15875 3.03528
39.1212 7.08637 2.94975
38.0971 7.48275 3.12071
36.8399 7.37089 3.12515
37.088 7.35553 3.18904
38.1336 7.10659 3.05323
36.1737 6.95129 3.04121
37.0134 7.55275 3.26832
36.6226 7.48415 3.26142
34.3443 6.68282 2.96026
34.604 6.95347 3.09269
36.8204 7.45389 3.328
35.3601 7.22785 3.24413
35.9434 7.2964 3.28615
35.0995 7.44205 3.37935
34.555 7.16603 3.39396
34.7765 7.13085 3.23806
33.5068 7.18661 3.30976
33.3748 7.0347 3.29998
34.9773 7.30105 3.41418
32.9615 7.54034 3.53904
32.4625 7.02918 3.3065
33.2429 7.22119 3.44789
32.0456 6.90706 3.27596
33.5483 7.30444 3.50221
34.195 7.56271 3.70045
32.388 7.05274 3.4255
32.2435 7.19995 3.52601
33.1583 7.31856 3.62409
33.0548 7.3885 3.72315
33.8902 7.49922 3.70065
30.8569 7.01007 3.60168
30.778 7.02824 3.56814
30.0149 7.31919 3.71434
31.5805 7.16355 3.68472
29.2266 7.10788 3.68553
31.1297 7.45781 3.79035
30.0327 7.28435 3.84276
31.7607 7.40773 3.9281
31.2113 7.59314 3.9487
30.3384 7.01162 3.71003
30.0608 7.33893 3.89651
30.2282 7.24586 3.85084
28.9741 6.99172 3.68293
30.0966 7.26026 3.99286
29.4403 7.18305 3.84782
30.159 7.29659 3.98924
29.0135 7.05012 3.87214
29.4655 7.41064 4.14142
29.9508 7.44575 4.12544
28.4535 7.46646 4.23672
28.8748 7.34385 4.10229
30.2905 7.75038 4.28664
26.5268 7.24036 4.16154
27.9021 7.3886 4.25751
28.1148 7.12983 4.1207
29.5005 7.54741 4.38388
29.0745 7.6061 4.37585
28.7226 7.75569 4.52685
27.5333 7.20081 4.21539
26.3778 7.08519 4.2149
27.6124 7.1651 4.25655
27.49 7.44413 4.4312
27.4743 7.80669 4.82741
27.6934 7.55774 4.51788
27.9073 7.25828 4.36544
25.6218 7.58739 4.49164
26.3419 7.05224 4.34666
25.5823 6.90671 4.254
26.5152 7.29856 4.46442
25.2513 7.12226 4.39856
24.8939 7.2438 4.55395
24.2976 7.29875 4.68279
25.8627 7.57191 4.77694
24.6303 7.14992 4.51612
24.859 6.9357 4.33112
24.9511 7.30322 4.68412
25.1738 7.5858 4.90413
23.9727 7.23014 4.69628
24.2651 7.09478 4.60752
24.5987 7.26343 4.78512
25.0762 7.46868 4.88384
24.1698 6.97027 4.57579
23.8369 7.48642 4.92794
24.3318 7.72048 5.10942
24.0669 7.30352 4.89888
23.7669 7.63835 5.11066
24.5813 7.67535 5.24399
24.3481 7.667 5.17352
23.2876 7.43865 5.1266
22.8099 6.99658 4.84731
23.1112 7.50303 5.10799
22.3804 7.08649 4.92601
22.7379 7.42057 5.15377
22.465 7.39281 5.21849
22.8097 7.32431 5.1553
23.5261 7.80415 5.49896
23.5854 7.53643 5.17896
22.4217 7.62846 5.47289
22.5621 7.63988 5.44167
23.1667 7.90386 5.71685
22.3085 7.19271 5.13248
21.6584 7.46024 5.41533
21.1975 6.82231 5.02873
22.7242 8.08885 5.90212
21.5622 7.17186 5.24499
22.2862 7.72006 5.75521
21.9982 7.48054 5.56771
21.6816 6.89176 5.10998
21.2245 6.96685 5.40476
22.789 7.67854 5.57578
21.9928 7.54767 5.63477
21.6161 7.63134 5.804
20.7677 7.59957 5.74587
21.3905 7.51631 5.76281
20.6746 7.70394 6.05177
21.6267 7.63395 5.8676
20.6264 6.99081 5.54393
19.7501 7.2845 5.60994
20.4957 7.17376 5.58932
20.5078 7.27037 5.66542
19.905 7.10689 5.61158
20.7322 7.49568 6.02197
19.7431 6.85081 5.51499
20.9372 7.58959 5.99434
19.5532 7.32099 5.90843
20.7856 7.3498 6.06119
19.4625 7.4126 5.88639
19.6593 7.46172 6.01398
19.6708 7.54264 6.05246
20.5513 7.73721 6.38199
19.799 7.38568 6.12871
19.3981 7.64611 6.38275
18.5779 7.37639 6.18469
19.8859 7.61218 6.39213
20.3407 7.78228 6.50501
19.3113 7.56382 6.31433
19.0382 7.50065 6.42259
20.1735 7.27965 6.26702
18.2451 7.28975 6.18243
18.2913 6.95438 5.99105
19.0305 7.6141 6.52006
18.95 7.58477 6.76301
19.3314 7.7881 6.69317
19.0895 7.82522 6.86195
17.7176 7.21583 6.26134
18.6088 7.37191 6.4995
18.1811 7.76956 6.93905
18.6298 7.71678 6.65557
17.9678 7.69873 6.92104
17.2805 7.12741 6.35114
18.308 7.80195 7.02567
17.5229 7.46102 6.69879
17.5097 7.70038 6.94792
17.5219 7.39604 6.79049
17.5742 7.35751 6.68932
17.769 7.69336 6.94132
17.0493 7.3907 6.9217
17.7655 7.52409 6.77089
17.3413 7.26616 6.9202
16.8909 6.97848 6.3823
17.8706 7.75965 7.29276
16.9357 7.33739 6.77644
17.4036 7.34552 7.07332
16.8992 7.58472 7.07828
16.6116 7.63667 7.34226
16.9791 7.5879 7.1931
16.0093 7.37011 6.99056
18.29 8.19309 7.78452
17.1218 7.74477 7.47855
16.654 7.52133 7.25296
16.8845 7.81155 7.49769
16.2477 7.21877 7.14146
17.1878 7.72061 7.40706
16.5396 7.2784 7.33857
16.8058 7.53761 7.52609
16.7541 7.89642 7.90228
17.4063 8.06532 7.83228
16.2785 7.88656 7.8693
16.4054 7.48195 7.34221
15.998 7.08916 7.24671
16.7782 7.81289 7.65549
16.5892 8.04379 8.12258
16.0689 8.09503 8.20992
15.7656 7.60157 7.69766
14.7319 7.2085 7.59925
15.8376 7.61761 7.88167
15.5939 7.67598 7.72204
14.726 7.35809 7.69731
15.2005 7.75547 8.07479
15.5546 7.57301 8.02116
15.6559 7.78497 8.1306
15.0917 7.75364 8.05749
15.7201 7.96604 8.53668
15.0666 7.69273 8.20776
15.7492 7.729 8.19758
15.1331 7.74762 8.23149
15.5046 7.92493 8.44007
14.537 7.43919 8.02283
15.9766 8.37286 8.85331
15.0678 7.41124 8.13603
14.9089 7.72815 8.43971
14.8089 7.60114 8.30597
14.5976 7.70947 8.47383
14.8985 7.62951 8.27354
14.6101 7.89803 8.82206
14.5406 7.71002 8.42357
14.7328 7.89542 8.72095
14.8939 7.85483 8.71741
14.539 7.75605 8.64504
14.6885 7.70424 8.70193
14.6847 7.66307 8.67689
14.8095 7.86694 8.8983
14.5296 7.57645 8.49381
14.3961 8.01999 9.12354
14.7685 7.94004 9.05637
14.8325 7.97637 9.19822
14.4767 7.5788 8.33774
14.5062 8.06974 9.49341
14.6692 7.7603 8.81396
13.359 7.26927 8.54784
14.2741 8.15632 9.55093
13.8385 7.41986 8.564
13.7321 7.38663 8.58337
13.1185 7.9637 9.3889
13.8711 7.89476 9.19728
13.541 7.42135 8.78216
13.8878 7.99146 9.63815
14.2094 7.94111 9.54557
13.6535 8.03927 9.56795
13.7171 7.69635 9.25984
14.1261 8.23329 9.84423
13.0556 7.31228 8.83267
13.4899 7.87738 9.57353
13.0403 7.43173 8.92551
13.331 7.54744 9.55866
13.1775 7.6022 8.9962
12.9 7.75359 9.61458
13.1232 7.91018 9.86832
13.7114 8.68677 10.5669
14.0746 8.2455 10.2852
13.8407 7.87289 9.67297
12.847 7.54047 9.35496
12.5704 7.58909 9.77849
13.5591 7.86822 9.64672
13.1506 8.24307 10.5412
13.4269 7.63359 9.67834
13.2633 7.58867 9.46861
13.0694 8.15619 10.3382
13.1921 8.03031 10.2132
12.7586 8.12986 10.2762
12.2596 7.51188 9.58518
12.2293 7.79551 10.1409
13.0863 8.26877 10.4593
11.9273 7.87172 10.7718
13.3002 8.12472 10.3065
12.4341 7.90737 10.4748
13.1648 8.28061 10.5586
12.5456 8.00115 10.6276
12.4514 7.88076 10.4132
12.764 7.7709 10.1793
12.3555 8.0905 10.5675
12.3913 8.05486 10.7056
12.5097 8.10465 10.7648
12.225 7.6453 10.2364
12.2897 7.81137 10.4655
12.4268 7.91853 10.7034
11.8157 7.66106 10.406
12.1476 7.69975 10.5623
12.4019 7.8075 10.3253
12.4779 7.90553 10.6478
12.3747 8.20531 11.3163
12.0246 7.73815 10.4242
11.7983 8.2683 11.6376
12.4082 8.63739 11.8933
12.4472 8.43221 11.7117
11.4272 8.01904 10.9863
12.2762 7.78321 11.3223
12.1484 8.35821 11.5164
11.7295 7.50563 10.6195
12.5305 8.58652 11.8674
12.0854 8.35628 12.0155
12.1493 8.13051 11.593
11.8151 7.98924 11.1685
12.1555 8.21525 11.7032
11.9476 8.10423 11.6076
11.8012 8.23695 11.688
11.4627 7.8501 11.5463
11.9594 8.27043 11.6783
11.9405 8.32248 11.8525
11.5574 8.34197 11.856
11.299 8.06935 11.8679
11.6739 8.48584 12.396
11.1531 7.98846 11.5454
11.4731 8.03331 11.598
11.7884 8.05593 11.5039
10.7851 7.34896 11.0866
11.605 7.85695 11.3579
10.9712 7.81375 11.4957
11.2105 8.25614 12.4044
11.2617 8.44773 12.6517
11.0266 7.70868 12.1692
12.1929 8.89224 12.7456
11.4267 7.75662 11.5549
10.9525 7.88035 11.818
11.1172 7.93168 12.1513
10.8774 8.18145 12.3835
10.7901 8.14537 12.593
11.4254 8.46996 12.8958
11.0369 8.23298 12.2677
10.8569 7.87676 12.1009
10.819 7.58986 11.7281
10.869 8.078 12.5825
11.2023 8.35247 13.0077
10.3293 7.95766 12.2601
11.0302 8.03406 12.6586
11.5228 8.49151 12.7878
10.0393 7.92177 12.7913
10.8938 8.0173 12.4632
11.6447 8.23709 12.6337
10.1718 7.90716 12.253
11.1244 8.55553 13.5472
10.7112 8.05237 12.8444
11.0099 8.23652 12.8988
10.4621 8.02169 12.5495
10.4193 8.08905 13.0541
10.7354 8.2823 13.0124
10.3755 7.89259 13.0386
10.5744 8.13981 12.9377
10.4562 8.25324 13.2616
11.0589 8.60741 13.9026
10.3452 7.85317 13.0095
10.5079 8.43026 13.6564
10.3314 8.21005 13.2378
10.2673 8.19269 13.3999
10.1063 8.13989 13.1437
10.0887 8.31153 13.5598
10.8337 8.13994 13.2865
10.0676 7.97736 13.7881
9.80613 7.98365 12.8659
10.398 8.07847 13.2803
10.1617 8.04844 13.7435
9.48401 8.00872 13.8889
10.0064 8.40678 13.9309
9.75287 8.0249 12.9459
9.86095 8.01188 13.3599
9.73374 8.67919 14.4305
9.89413 7.7206 13.5323
10.375 7.70443 12.8314
9.75668 8.21547 14.0483
10.0746 7.97764 13.1856
10.1658 8.25368 13.8815
10.0967 8.15165 14.4941
10.0516 8.47751 14.2307
9.52713 7.81821 13.3896
9.82369 8.1251 13.5875
9.42254 8.26027 14.3992
10.2373 8.45962 14.7676
9.73947 8.23105 14.3494
10.2538 8.35448 14.6996
9.97335 8.12126 14.095
9.73977 8.53936 14.6366
10.2027 8.33677 14.5436
9.46538 8.02702 14.2343
9.3102 7.72141 14.334
10.2411 8.59196 14.9529
9.80707 8.10311 14.1066
9.44786 7.83362 13.7731
9.39695 7.79482 13.7817
9.51915 7.98512 14.0026
9.10848 8.46358 15.9395
9.65574 8.01373 14.0067
9.02171 7.54646 13.3769
9.28282 8.41152 15.4245
9.67643 8.37618 15.022
9.28161 8.01315 13.9955
9.04001 7.50659 13.8936
8.93845 8.14565 15.0099
8.90993 8.31771 14.7562
9.2691 8.5487 15.9273
9.26214 8.023 14.7827
9.15956 8.04024 14.8348
9.07298 8.20396 15.292
8.93206 8.01712 14.9698
9.32953 8.5071 15.4253
9.31353 8.51556 15.894
9.20334 8.4422 15.4423
9.16287 8.35532 15.3433
8.76956 7.79127 15.0594
9.132 8.6788 15.9215
8.87968 8.27544 16.0598
8.85495 8.32731 15.4759
9.18011 7.90139 14.7876
8.46971 8.38619 16.1343
8.95286 8.54882 15.8611
8.79708 8.19891 15.0702
8.56063 8.09641 16.1196
9.23917 8.51253 15.8015
8.76066 7.86765 15.2147
8.87538 8.40653 16.1949
8.95642 8.02656 15.2902
9.09741 8.70378 16.7655
9.00142 8.62057 16.3341
8.67899 8.02279 15.6485
8.97402 8.17431 15.74
9.1359 8.6698 16.8681
8.75273 8.40665 16.4698
9.12838 8.74698 16.8911
8.31171 8.21526 16.5572
8.66419 8.59256 16.5579
8.65111 7.99845 16.1092
8.66844 8.13386 15.5468
8.65296 8.51225 17.3081
8.251 7.99259 15.3551
8.86021 8.60846 16.6465
8.50438 8.09281 16.1596
8.49433 8.4539 16.6361
8.2815 8.10444 16.3837
8.4568 8.35353 16.5658
8.8165 8.54819 16.8476
8.42777 8.53935 17.0923
8.51765 8.13865 16.4362
8.56892 8.24409 16.2759
8.28242 8.42505 17.6052
8.55252 8.40876 17.1146
8.85514 8.96998 18.0345
8.50903 8.63086 17.371
8.64173 8.35756 17.0527
8.28072 8.62711 17.9983
8.55814 8.60604 17.5403
8.35714 8.50946 17.4269
8.12851 8.42369 17.4946
8.55241 8.35509 16.8807
7.92498 8.48405 17.3346
8.27373 8.37538 17.8301
8.40237 8.34294 16.965
8.32411 8.10666 17.4489
8.53706 8.2343 16.1714
8.18817 8.31253 17.8975
8.41838 8.56072 17.1315
8.13595 8.77752 18.0954
8.13461 8.39709 17.4451
7.96386 8.20017 17.9021
8.49266 8.83644 18.4461
8.25474 8.59323 17.9941
7.78152 7.92983 17.3288
8.1601 8.68095 17.8626
8.33069 8.46114 17.8481
8.25052 8.6656 18.4096
7.89107 8.22951 17.9543
8.27555 8.36125 17.5211
8.11543 8.48513 17.6434
7.91012 8.124 17.7789
7.90912 8.513 18.3484
7.87649 8.23772 17.7792
7.80696 8.58068 18.4434
7.80768 8.38271 18.3913
7.64208 8.58971 19.0164
7.98179 8.60609 18.2137
7.72175 8.27427 18.577
8.33521 8.73019 18.956
8.043 8.37286 18.6342
7.892 8.33529 18.0512
7.59779 8.62794 19.0134
8.16874 8.80432 19.4595
8.0793 8.81408 18.5379
7.66061 8.10102 18.1067
7.5658 8.87238 19.8745
8.04802 8.54149 17.6875
7.38542 8.41955 19.3503
7.62755 8.30181 18.773
7.64379 8.16932 18.1297
7.46258 8.47895 19.1837
7.62305 8.54245 19.0395
7.58166 9.01308 19.586
7.7355 8.1636 18.5014
7.59512 8.72462 19.0587
7.62809 8.36252 19.2376
7.55123 8.19986 18.5279
7.4692 8.78445 20.611
7.17233 8.12394 18.4851
7.81836 9.04545 20.4788
7.90192 8.91449 19.6806
7.97856 8.85514 19.891
7.63477 8.67849 20.3622
7.54958 8.55733 19.6715
7.4764 8.3906 18.8499
7.43752 8.81565 19.5953
7.77147 9.00959 21.1485
7.5933 9.13136 21.5241
7.78349 8.26982 19.0029
7.13299 8.94283 20.2866
7.38987 8.49216 19.3346
7.19204 7.99349 18.5851
7.08079 8.31178 19.499
7.26089 8.3307 19.783
7.13431 8.76244 20.2447
7.46391 8.58352 20.2516
7.00024 8.5473 19.8254
7.20366 8.278 20.1689
6.9938 8.45988 18.7454
6.91796 8.14329 20.1762
7.70036 9.14709 21.2996
7.41501 8.28312 19.1318
7.32518 8.5359 20.9956
7.40113 8.39649 20.4675
7.38498 9.20064 21.7433
7.33431 8.57296 20.3503
7.26523 9.15498 21.4381
7.08976 8.45751 21.0479
7.40678 8.43357 20.0502
7.3172 9.07711 21.3172
7.16131 8.48592 20.1679
7.3335 9.26182 22.3016
7.25371 8.9851 21.7527
7.17657 8.59662 21.1548
7.0594 9.13944 21.3486
7.21956 9.22172 22.0332
6.72077 8.37657 20.5668
7.16567 9.10086 21.2832
6.88863 8.67824 21.827
7.57955 9.02994 21.685
7.11638 8.42533 21.1857
6.99381 8.14308 20.1829
7.14904 8.32402 20.4495
6.86621 8.51573 20.6603
6.94956 8.34958 20.9633
7.0383 9.1516 22.5129
7.24784 8.73905 21.2877
6.98284 9.21384 22.5313
6.80809 8.45463 21.801
7.32398 8.81994 22.1176
7.03498 8.87051 22.5204
7.16316 8.9041 22.3305
7.0161 8.72765 20.9273
6.52814 8.31921 20.7737
6.95775 8.78415 22.1399
7.04534 8.81633 22.2596
7.00028 8.9438 22.2098
7.05061 9.14286 22.9588
6.95725 9.34166 23.4187
6.87619 8.52308 21.1116
6.66523 8.65597 22.3735
6.76269 9.11796 22.9192
7.01778 9.21402 23.5119
6.86898 8.32062 21.8092
6.83338 8.94067 23.6523
7.64264 9.8011 24.3514
6.97458 8.81018 21.8972
6.90671 9.22601 23.5488
6.85839 8.51556 22.7404
6.60177 8.73155 22.4678
6.85032 9.0786 22.4765
6.67115 9.31089 23.8518
6.80613 8.46944 22.3245
6.46391 8.45578 22.2056
7.00946 9.34872 23.9158
7.00825 9.33772 24.134
7.01127 9.40329 24.7404
7.05491 9.81346 24.8699
6.34893 7.95261 21.3486
6.83642 9.29669 23.4239
6.77878 9.09728 23.9724
6.48008 9.63845 25.6926
6.83787 9.23354 24.8783
7.02508 9.4605 24.7897
6.70484 9.48273 24.6448
6.9354 9.42908 24.496
6.69449 9.01698 23.7432
6.67694 9.36029 24.0126
6.59868 8.91222 24.0334
6.3402 9.11225 25.2414
6.9856 8.6809 22.6112
6.49169 9.05633 24.3727
6.73264 9.0092 23.6423
6.27126 8.68271 23.6658
6.565 8.58523 23.0449
6.75579 9.41609 25.1705
6.65642 8.54927 22.9646
6.5496 9.30749 24.3053
6.60793 8.95592 24.6965
6.85419 9.32349 24.3445
6.38778 8.27565 22.4331
6.21691 8.88129 24.7438
6.651 8.95658 23.3404
6.29759 9.01724 24.5009
6.58397 8.91621 24.1063
6.20044 8.75601 25.1656
6.7182 8.71137 23.1022
6.5299 9.02277 24.6283
6.41041 8.82672 24.2258
6.52041 9.38599 25.1822
6.5518 9.16119 25.0504
6.44891 9.11692 24.8007
6.43091 8.8574 24.3897
6.0444 8.52489 24.4849
6.47183 8.71766 23.0356
6.27615 8.90406 24.9237
6.35913 8.92613 24.7702
6.24292 8.82943 24.0201
6.31406 9.19534 25.6987
6.56215 9.00134 23.5474
5.92983 8.91509 24.8287
6.18466 8.50986 24.5928
6.26089 9.1122 24.4669
6.33181 8.8469 23.9215
6.13995 8.72399 25.0706
6.26657 8.66712 25.3706
6.53628 9.5997 26.2827
6.06193 9.0314 25.286
6.20956 8.8525 26.2962
6.61833 9.31074 24.9775
6.18048 8.86497 25.0954
6.09801 9.57787 27.0237
6.37726 9.24657 26.3601
6.3089 8.90243 25.2257
6.22302 9.26179 25.7967
6.33106 9.15391 26.6062
6.64192 9.42738 26.3386
6.03933 8.97648 24.7362
6.05159 8.41718 25.1036
6.08003 8.7123 25.6407
6.08553 9.27872 26.2428
6.23384 9.14903 25.8101
6.17993 9.0926 25.9592
6.17503 9.38707 26.4746
6.04105 8.37724 24.9839
6.04536 9.2054 26.351
5.93433 9.00086 26.1622
6.0893 9.05091 25.8028
6.14836 9.53673 26.1472
6.04763 8.60733 25.7432
5.9988 8.40365 23.589
6.0923 8.99497 26.5265
5.95084 8.70733 26.07
6.18315 8.75467 25.632
6.15078 9.05766 25.973
6.133 8.84059 25.6738
6.00203 9.20244 26.8623
6.03106 8.79329 25.6748
6.38035 9.0472 25.2224
5.67809 8.88985 26.8677
6.1107 9.30642 27.7787
6.36638 8.85665 24.7388
5.88388 9.19352 27.1056
5.9582 9.2983 28.4413
6.03873 9.25989 26.7441
5.82267 9.0692 26.5
6.31131 9.12565 26.179
5.97175 8.74144 26.1021
5.81947 8.79242 26.4167
5.98985 8.81561 26.7424
6.12773 9.02621 26.764
5.83596 8.75113 25.7061
6.03351 9.18941 28.0683
5.80161 8.716 25.9892
5.83435 8.72061 26.3767
5.98305 9.37046 28.5222
6.05326 9.12676 25.5371
5.50541 8.76899 27.2213
5.82831 8.7931 26.0888
5.48955 8.55312 26.9833
5.77009 8.96994 25.7631
5.43496 9.20325 27.8347
5.77978 8.77588 27.687
6.09359 9.31054 27.9178
5.62833 8.82041 26.7316
5.65342 9.20316 27.0428
5.62354 8.94082 27.5126
5.84818 9.35828 28.7378
5.93942 9.31923 28.2946
5.9757 9.36534 27.8524
5.80381 9.3254 28.587
5.77279 9.22224 28.1983
5.72144 9.15044 27.5763
6.07831 8.9731 28.0803
6.07924 9.25185 28.9719
5.97237 9.34531 28.6589
5.91841 9.1099 28.2268
5.73064 9.28359 27.5532
5.73325 9.41437 28.1607
5.77756 9.7449 29.8274
5.802 8.46634 27.6243
5.84962 9.25373 27.7617
5.6842 8.59241 27.5244
5.91417 9.23194 28.0755
5.63774 8.71647 28.3949
5.9092 9.48215 29.3554
6.13769 9.43733 28.8614
5.88471 8.90359 26.7466
5.46247 8.41358 26.315
5.41663 8.53688 27.1045
5.76926 9.415 29.5236
5.91354 9.3463 29.3777
5.89307 9.50555 28.9487
5.76731 9.09584 29.384
6.01205 9.45874 29.3646
5.95343 9.83835 29.7215
5.83643 9.35373 30.2081
5.82119 8.96062 28.6274
5.93948 9.58693 29.632
5.53133 8.81614 28.2549
5.77016 9.52012 28.1728
5.50727 9.07836 30.5836
5.68357 9.16775 30.3418
5.99114 9.6948 29.8411
5.78496 9.06304 29.8136
5.83825 8.89936 27.5214
5.67499 9.14655 29.5122
5.91461 10.1623 31.4693
5.75479 8.83036 28.5508
5.80471 9.22165 28.8631
5.55739 9.44985 30.179
5.54996 9.36969 29.0491
5.68161 9.46468 29.876
5.54341 9.43085 31.4576
5.72837 8.9125 28.995
5.80149 9.23995 29.7578
5.52279 9.0795 28.4124
5.37027 9.33251 31.1017
5.57396 9.00643 29.7049
5.84377 9.08853 28.986
5.41435 9.18565 30.2835
5.64845 9.77978 32.1681
5.57356 8.9291 28.4087
5.4266 9.23905 29.1967
5.64401 9.11189 29.9073
5.62411 9.67442 30.8519
5.58011 8.9908 28.8261
5.35855 9.03875 30.0531
5.43543 9.98142 33.2041
5.72452 9.33751 30.3023
5.80694 9.58159 29.2695
5.37944 8.66038 28.268
5.39777 9.47786 30.879
5.43613 8.95261 30.1413
5.61247 9.23094 29.8483
5.30619 9.6495 30.5376
5.3943 8.85153 30.2334
5.41712 8.87847 28.8357
5.26162 8.90924 29.8896
5.4184 9.28662 30.2607
5.5187 9.35809 30.3717
5.3822 9.1779 31.1726
5.48812 9.23801 29.5421
5.09406 9.17341 29.7412
5.4915 9.44261 32.2809
5.73023 9.74019 30.8389
5.30136 9.30244 31.8474
5.37049 9.40943 31.2485
5.58323 9.51858 31.7139
5.6605 9.70082 30.8888
5.3896 9.10588 31.2581
5.58812 9.47802 31.4642
5.51994 9.28168 31.0416
5.26381 9.62976 32.9988
5.53999 9.16705 30.5674
5.57229 9.78975 31.5264
5.4947 9.73056 32.6918
5.33034 9.13219 32.0243
5.40788 9.55655 31.4296
5.2869 9.20787 32.1125
5.36085 9.40086 31.2821
5.34898 9.56323 30.9107
5.31877 9.58812 32.5002
5.29932 9.25016 30.9932
5.31676 9.05936 29.7676
5.03715 9.31358 31.655
5.30702 9.4264 31.8091
5.42607 9.18966 32.1243
5.34328 9.25269 31.8228
5.35196 9.55126 31.0315
5.07451 9.11857 32.4481
5.2859 9.40285 32.0179
5.35473 9.6565 32.5102
5.22986 9.24436 32.593
5.45942 9.50454 31.4934
5.11201 9.82431 33.8995
5.54395 9.35736 32.8474
5.47093 9.3932 31.6803
5.47511 9.54288 31.8471
5.08939 9.35487 30.5697
5.19608 9.20524 31.09
5.0138 9.37324 33.2905
5.29426 9.15629 31.2396
5.08143 9.59853 33.0864
5.54449 9.7679 34.0831
5.39665 9.5097 33.3205
5.56488 9.7158 32.4891
5.25216 9.20001 31.5817
5.42736 9.16813 32.1522
5.20405 9.44785 32.799
5.06612 9.39359 32.8798
5.25974 9.86724 33.3638
5.37756 9.2986 31.6255
5.20234 9.40641 34.3299
5.61822 10.0656 33.1712
5.2651 9.21117 32.6582
5.26442 9.75165 32.9758
5.00279 8.93906 32.9164
5.17314 10.0676 33.649
5.23583 9.48453 32.9119
5.15338 9.41157 33.5432
5.35812 9.49995 32.5993
5.35206 9.4348 32.7353
5.21207 9.22094 33.8638
5.47498 10.2991 34.1701
5.2923 10.4762 35.2496
5.47 9.03064 31.7295
5.24109 9.70104 34.1745
5.20463 9.32856 34.3049
5.38888 9.38599 32.1063
5.03135 9.82507 33.6783
5.27682 9.3117 31.9693
5.18503 9.83511 34.6724
5.43968 10.2267 34.8936
5.05277 8.83226 33.0353
5.1941 9.94105 33.9228
4.96351 9.27662 33.2125
5.32232 9.31008 33.4985
4.99137 9.63974 34.7498
5.47707 10.2717 33.4194
4.80421 9.5086 33.5489
5.01609 9.31213 35.3042
5.17457 8.91059 32.5484
5.26257 9.7771 33.5806
5.12671 9.58207 34.4231
5.10251 9.46449 36.0349
5.47468 9.73021 33.5068
4.91147 9.37379 31.9831
4.84409 9.04665 34.1559
5.15612 9.86772 33.0535
4.97948 9.52893 34.3263
5.2378 9.73889 34.8575
5.20095 9.49049 34.2156
5.18777 9.7258 36.5462
5.35598 10.0427 36.4629
5.31172 10.1929 35.6561
4.98358 9.44983 33.9959
5.11421 10.0138 34.235
5.1669 9.78653 35.7889
5.25136 9.92589 34.5226
5.10314 9.86543 36.3763
5.14442 9.75434 35.7808
5.14122 10.0738 36.2014
5.10111 9.77886 33.9939
5.18758 9.74754 35.6679
5.1411 10.3073 37.071
5.38672 10.2523 36.3568
5.30357 10.5701 39.7163
5.41185 9.99814 33.2656
4.93805 10.3271 38.2911
5.31084 10.1347 37.2796
5.11134 10.2146 37.994
5.13286 10.2112 35.7397
5.04272 9.7367 36.6043
5.33979 9.99845 34.5431
5.01431 9.31584 36.0703
5.20584 10.1985 36.3372
5.25451 9.22618 34.6592
4.87807 10.2148 36.2894
5.21563 10.1422 35.6891
4.91641 9.58162 35.9754
4.96755 9.59071 33.9432
4.83187 9.97014 35.7549
4.91727 9.35902 35.9765
5.10849 9.78631 35.1677
4.88805 9.96589 36.7788
5.02423 10.2644 37.2887
5.08243 9.90569 35.3992
5.13641 10.0063 37.5476
5.14867 9.99202 36.9915
4.90553 9.97955 36.2601
5.06753 9.56338 35.2401
4.90348 9.58823 35.04
4.94068 10.0144 36.2724
5.07361 9.99785 36.4578
4.95749 9.34277 36.0156
4.85497 10.053 35.5964
4.97019 9.04142 34.6688
5.02902 10.0932 36.2986
4.73255 9.68039 35.5668
4.99105 9.68188 35.5479
4.94913 9.19884 35.6447
4.91419 9.51768 35.5855
4.92459 10.4609 38.9863
5.17594 10.194 34.8344
4.97836 9.86344 35.3628
4.89517 9.19719 34.1434
4.83339 9.76785 35.7227
5.11298 9.92246 38.0309
5.2204 9.85559 35.8542
4.85771 9.76753 36.6246
4.85129 9.5875 35.2633
4.8437 9.26534 35.9211
4.99957 9.3882 34.3372
5.02045 9.31829 37.1706
5.11547 9.99554 37.0695
5.03965 10.0057 36.8439
4.65378 9.94597 37.8472
4.92698 9.52683 35.9945
4.98162 10.0001 35.7383
5.04017 9.41086 35.5581
4.95106 9.39486 33.1512
4.81847 9.2936 35.2691
4.80703 9.18425 35.7553
4.70709 9.44208 35.5127
4.61984 9.56018 35.9324
4.81272 9.37458 35.7624
4.91233 10.1822 35.8502
4.76032 9.41266 36.0014
4.96426 9.69502 36.3079
4.76697 9.37878 34.5371
4.57589 9.44103 37.0916
4.91657 9.28347 35.3174
4.81112 9.372 35.316
4.84417 9.56327 35.2855
4.85668 9.46486 37.8299
4.90738 9.26712 34.637
4.72584 9.26465 35.4127
4.71234 9.64019 35.4278
4.54916 9.42727 35.5516
4.72226 9.77495 34.9861
4.74566 9.73101 37.6202
4.88966 9.67414 36.8616
4.82508 9.42244 36.2768
5.10248 9.42866 36.8084
5.09209 9.6889 35.905
4.72363 9.67748 35.9631
4.75156 9.60428 36.9254
4.84926 9.83875 37.8453
4.90407 9.31135 34.0289
4.79605 9.88112 36.4817
4.72064 9.385 35.4113
4.70163 9.51783 38.1621
4.95168 9.35154 34.4447
4.54162 9.45575 36.8332
4.79964 9.28465 36.6286
5.13641 10.1944 37.4809
4.95331 9.7333 37.368
4.71379 9.87607 35.8875
4.60489 9.46331 36.2416
4.86033 10.0814 38.6145
4.79586 9.67831 37.0856
4.82113 9.41278 36.6922
4.62527 9.60956 38.9893
5.02849 9.68254 35.0398
4.83042 9.80314 37.0877
4.61852 9.3361 34.2052
4.57939 9.54598 36.9251
4.79307 9.72675 36.2777
4.78425 9.62926 38.1617
4.79658 9.51032 37.4989
4.74421 9.97916 38.3381
4.85045 10.057 39.1423
5.07562 9.39066 36.3549
4.61634 10.0479 38.9164
4.90057 9.62073 36.7338
4.78632 9.32147 35.8337
4.65016 9.59848 35.2689
4.64696 9.88867 37.7937
4.77079 9.20463 35.5539
4.53659 9.07634 35.1818
4.6381 10.1854 38.6313
4.52516 9.24231 38.241
4.81983 9.53064 37.0436
4.78523 9.64547 36.3945
4.75171 10.0826 37.8054
4.80967 9.34993 36.5263
4.73925 9.62724 36.8866
4.71519 9.75334 38.5531
4.93333 9.76877 37.0708
4.64416 9.98375 38.6284
4.90873 9.59905 37.9893
4.92987 9.6292 36.3847
4.80437 9.69684 37.5407
4.76522 9.92303 38.5463
4.74324 9.18994 36.2968
4.52467 9.95718 38.3891
4.81208 10.071 37.6175
4.69053 9.42874 37.7678
4.66004 9.59769 35.7785
4.44387 9.51453 37.6132
4.80348 10.0612 38.9709
4.52927 9.35233 35.9756
4.6542 9.59477 37.5578
4.82388 9.87655 37.2007
4.73447 9.4102 39.26
4.98033 9.40651 36.0001
4.53387 9.72809 38.4248
4.63094 9.74091 38.4436
4.65497 9.77392 37.3869
4.68624 9.516 34.9929
4.71323 9.17126 37.2719
4.88232 9.95671 40.2347
4.77009 9.66569 36.0391
4.56668 9.32744 35.2686
4.71182 9.75785 38.4595
4.6646 10.1447 38.9922
4.84362 9.11712 35.5002
4.44968 9.22546 36.2905
4.57526 9.4791 37.186
4.66928 9.70852 38.3545
4.64833 9.41278 36.883
4.72352 9.79329 37.2701
4.53322 9.83032 39.6139
4.71221 9.27102 37.4953
4.5942 9.63844 38.5525
4.77314 10.1974 37.9725
4.75334 9.52184 38.0301
4.47982 9.92736 39.1486
4.59661 9.79918 39.8835
4.61216 10.3092 39.6027
4.68274 9.93846 38.9531
4.64475 9.95618 40.0124
4.64347 9.55957 37.0959
4.68051 9.5399 37.7188
4.89062 10.2186 39.7238
4.90331 9.79317 39.8142
4.81833 10.5028 37.6571
4.42158 9.75385 38.4481
4.64802 9.66393 36.5772
4.53073 9.60522 37.5909
4.63968 9.52411 38.7696
4.85926 9.91136 40.6277
4.95621 10.0199 36.5881
4.37897 9.33645 38.9401
4.63908 9.78128 38.0952
4.61276 9.44827 36.0804
4.69423 9.49998 38.7453
4.75971 9.93797 39.0913
4.65202 9.51274 39.1881
4.85362 10.2375 38.9974
4.70528 9.85365 38.205
4.51698 9.83865 37.9917
4.49829 9.02474 36.8888
4.45559 9.82242 38.6053
4.66092 9.09268 36.4719
4.76196 10.0664 37.6569
4.55082 8.83857 35.9894
4.35972 9.47755 39.0139
4.8685 9.53451 38.0616
4.72948 9.73852 37.6049
4.63701 9.58844 41.8419
4.74868 10.0105 37.2835
4.4519 9.73229 37.1409
4.63634 9.4213 36.6431
4.46832 9.08146 37.3022
4.72581 9.79989 38.1176
4.64692 9.87012 39.1108
4.69039 9.29998 37.77
4.57881 9.82926 38.5137
4.79765 9.92416 37.2122
4.62653 9.86428 40.3412
4.57634 10.3404 40.3593
4.65245 9.32181 38.3951
4.65222 10.0509 37.7286
4.68037 10.2691 38.2148
4.46813 9.80248 37.5137
4.62394 9.77989 41.7746
4.7626 10.2212 40.2307
4.76911 9.57103 37.5869
4.52889 9.95908 40.0818
4.71303 9.57143 40.087
5.01216 10.4208 40.3519
4.54838 9.79259 37.2819
4.46265 9.91848 39.4762
4.91185 9.22196 37.349
4.62585 9.9402 38.2295
4.63772 9.27872 37.6709
4.60147 9.62818 38.4133
4.69224 9.68388 40.2945
4.47131 9.16273 37.4249
4.62319 9.90564 38.6539
4.60749 9.49723 37.4197
4.44938 9.8677 38.9615
4.52588 9.99068 38.029
4.2681 9.12788 38.8684
4.68481 10.0232 39.5956
4.62384 9.56664 36.7137
4.39661 9.50865 38.0795
4.52283 9.38793 37.655
4.45477 9.30053 38.3628
4.54071 9.44558 39.5955
4.70547 10.3037 38.4584
4.67894 9.60015 37.3978
4.52892 9.32733 37.9455
4.38633 10.3961 40.8402
4.77038 9.47571 38.2611
4.67814 10.0541 40.5988
4.77071 9.75258 38.1005
4.51182 9.97479 39.0364
4.65624 9.40515 38.8187
4.42989 9.50426 39.4507
4.51317 9.92035 40.4737
4.76749 10.2927 39.2665
4.66729 9.81488 37.3178
4.48187 9.29125 38.1819
4.58021 9.69923 37.5964
4.66293 9.33325 36.512
4.52117 9.31718 38.5681
4.72057 10.0215 40.2306
4.73055 9.80397 39.4561
4.79646 10.1148 39.9741
5.00517 9.42572 39.9137
4.70297 10.0162 38.4836
4.7672 9.81603 38.3217
4.38825 9.73093 39.2877
4.77292 9.75135 38.3002
4.53056 9.62739 38.5185
4.43526 9.88342 40.8224
4.7576 10.0293 40.4336
4.6814 10.129 43.1387
5.00638 10.7501 39.1803
4.64562 9.94621 40.1269
4.75781 9.88888 38.9773
4.56729 9.305 38.47
4.6384 9.85571 37.2757
4.56627 9.34153 40.6851
4.65076 10.2908 40.0087
4.7987 10.5943 40.0137
4.80595 9.77601 41.2463
4.82049 10.0649 39.4608
4.77571 9.576 39.4271
4.43194 9.88449 41.0008
4.62101 10.5946 41.2607
4.77116 10.1578 39.6399
4.5876 10.0499 40.0326
4.64719 9.82744 39.1449
4.80504 9.91178 37.653
4.56664 9.95419 40.3879
4.34717 10.395 40.2639
4.67416 9.80898 40.641
4.67516 10.2667 39.8023
4.88957 9.54463 40.4535
4.63227 9.7599 39.9116
4.68702 10.4023 42.417
4.87714 10.7668 42.1374
4.81988 10.4098 40.5938
4.54716 0 0