# pn-170911/RbIIA-36-PTBB-1280-1959.psd
# Power spectrum* (dif=0,1,2) (really just |FT|^2)
# NOTE: only the first half! (symmetric)
# weeks: 1280-1959
# 7 clock-days, 0 excluded
# PSD: 1441
1309.33 0.105885 0.0170346
122532 1.95609 0.00481226
687266 13.4491 0.00514054
188145 7.44721 0.00644412
213614 15.0868 0.00659776
53964.6 5.26374 0.00494569
27013.5 5.47898 0.00483898
49605.7 10.9068 0.00969979
22599.8 5.57988 0.00600966
24637.5 7.3152 0.00566831
17376.9 7.13449 0.00987659
13607.4 8.05097 0.00830676
12426.9 7.83803 0.00773953
9518.5 6.3632 0.00854777
10146.6 7.73681 0.00919365
6285.77 4.91693 0.0115553
10743 10.2121 0.0171501
7910.72 9.91932 0.0231416
6029.15 6.68426 0.0107195
2513.59 5.5163 0.0127514
3386.68 4.94984 0.0142298
1299.9 3.05957 0.010076
5293.96 9.03906 0.0272976
3125.44 6.89995 0.0120053
3036.6 5.59512 0.0238808
1785.63 4.26827 0.0195894
1567.43 5.27907 0.0226885
3080.27 8.42021 0.0389735
2336.45 7.58827 0.0208534
767.241 3.2846 0.0192806
1023.09 3.1075 0.019391
3054.84 14.4278 0.0927704
1430.18 6.05238 0.0292191
1847.32 8.78371 0.0461493
2664.46 15.4342 0.114016
1487.08 10.3344 0.0750689
1435.33 6.43856 0.0476773
776.025 5.21723 0.0382795
1575.77 11.3824 0.0955636
1687.92 9.94476 0.0791136
742.89 3.1946 0.0300876
709.531 3.94344 0.0278224
830.231 6.80323 0.0509344
470.376 2.77848 0.028759
1151.62 8.60157 0.105021
655.52 7.28954 0.0864886
1143.32 8.78328 0.107449
950.644 9.77224 0.118938
750.61 6.76874 0.0770483
543.471 7.10958 0.0830842
634.186 6.22306 0.101653
672.831 7.96179 0.0935587
463.824 5.12896 0.077088
429.836 5.53468 0.0689011
487.584 7.07409 0.089781
591.506 10.0203 0.144603
391.911 6.28271 0.116276
434.537 5.54015 0.0972115
289.234 3.17384 0.0463151
223.891 4.20281 0.0720154
298.072 4.16554 0.0899302
626.391 8.90661 0.165699
332.753 6.61926 0.120441
378.294 8.44314 0.146076
491.77 7.87402 0.162097
170.514 3.74141 0.0975383
224.675 2.97954 0.084361
161.814 3.71396 0.094703
252.151 5.03225 0.125985
404.735 8.51341 0.178027
604.967 15.2781 0.376405
317.333 6.77764 0.145838
197.03 5.16297 0.15515
172.494 3.08499 0.0855068
344.68 6.82897 0.152421
291.399 7.1067 0.186434
221.227 5.28895 0.179575
321.614 7.38746 0.1986
393.656 10.7705 0.335432
416.203 11.6479 0.352319
186.594 5.06082 0.17085
97.475 4.68889 0.14532
254.846 7.37046 0.258886
163.778 6.26675 0.179278
186.838 6.8153 0.20683
296.828 7.65821 0.256239
144.292 4.81553 0.170896
228.422 6.50274 0.200408
431.871 13.3169 0.459629
166.861 7.30022 0.283781
280.446 9.35557 0.351513
27.6177 2.11846 0.0664132
155.988 5.09429 0.211941
272.112 10.249 0.379194
132.015 5.7274 0.270197
169.829 6.45867 0.275032
83.7459 4.1658 0.168552
113.878 4.32371 0.189345
156.21 7.63055 0.372616
86.6264 4.2613 0.187952
120.549 6.40793 0.341749
82.9508 4.05624 0.216131
141.585 5.8742 0.291342
89.6325 4.59553 0.214834
161.554 7.26394 0.362758
177.331 7.26426 0.353065
176.094 9.11373 0.51405
81.8564 3.2422 0.217211
202.786 9.40715 0.515716
166.861 8.09018 0.444549
145.425 10.8645 0.64247
130.408 5.99122 0.341227
109.503 7.16608 0.448839
153.396 8.63082 0.578007
110.717 7.99888 0.512141
82.8251 3.7341 0.236872
153.814 9.6008 0.64225
115.165 7.01182 0.442281
103.969 6.28801 0.437199
61.6342 5.40108 0.392288
198.557 10.8727 0.742836
160.803 11.4814 0.90128
72.6577 6.01335 0.450826
130.977 6.90926 0.534675
107.208 7.49452 0.585398
131.982 8.66815 0.60567
178.352 12.0401 0.894041
109.02 7.36236 0.596855
87.968 5.63895 0.413095
69.5619 5.1072 0.481869
88.1553 6.01498 0.470498
82.9122 7.01903 0.558625
157.615 12.5831 1.11219
83.263 7.92729 0.686967
121.665 8.23562 0.71093
152.705 10.2008 0.802731
58.5667 4.55904 0.40094
156.525 12.7744 1.15611
103.131 9.85298 0.857143
55.2293 6.44329 0.550784
69.784 6.43847 0.522991
49.1984 6.09835 0.526455
72.2904 6.38356 0.687033
79.0482 7.69809 0.658515
82.9926 7.79351 0.732335
84.534 8.48846 0.84883
100.623 10.1096 1.09048
68.3478 5.755 0.503644
66.1317 7.3468 0.766589
54.9345 4.55732 0.492503
28.2387 3.10538 0.401457
113.52 11.9798 1.24332
85.4399 9.09162 1.00866
80.8773 7.25382 0.758983
72.1322 7.6834 0.97188
85.407 8.45829 0.992512
78.7485 9.26023 1.09921
59.5081 6.48852 0.715273
107.877 13.147 1.65528
36.1661 5.87948 0.680786
71.1811 6.90443 0.855834
60.2572 7.50274 1.01837
28.8564 2.63388 0.361515
89.0186 10.3327 1.39964
51.1614 5.27096 0.733652
23.7517 2.16516 0.222861
58.8409 8.75128 1.15867
53.8707 6.7227 0.882094
62.4834 5.9319 0.776571
38.0336 5.52452 0.742882
60.5378 6.13702 0.832703
50.5471 5.36189 0.784768
30.8633 4.26158 0.613607
91.1623 13.109 1.78345
58.0701 6.52355 0.946755
61.6428 7.25971 1.14847
56.268 6.99345 1.00329
53.3569 7.49106 1.21904
51.2156 5.52808 0.818803
62.0164 7.61592 1.24278
46.1233 5.38419 0.853403
28.032 5.29964 0.826767
55.6204 7.24863 1.12021
45.0834 7.57909 1.28906
40.7341 6.50039 1.15621
47.1648 7.05392 1.06717
32.6643 6.65188 1.04589
61.2036 12.1043 1.92002
44.3384 9.14156 1.48089
45.1647 8.45514 1.55305
57.9674 8.76436 1.36791
27.9974 5.93052 0.964293
36.126 6.72808 1.29236
21.3572 4.9104 0.831269
40.097 8.11291 1.39612
45.3807 6.75804 1.30703
44.5958 7.46618 1.36201
34.3268 8.22869 1.62368
43.2586 7.12463 1.06688
21.2437 6.54566 1.29736
16.6998 2.17089 0.435586
22.6859 4.69843 1.07636
38.6391 7.31237 1.34092
43.0942 6.06739 1.07246
23.872 5.43655 1.16651
44.9727 7.68283 1.54102
26.3377 4.25719 0.761795
39.5735 7.91672 1.64819
32.2367 4.55157 0.937335
30.1008 7.33157 1.50511
41.814 7.55012 1.64334
30.8552 4.94014 1.06004
39.3873 9.03344 2.29191
46.1394 10.6531 2.12457
85.9656 14.2536 3.03467
43.6233 8.83115 1.83488
38.7476 7.58268 1.45606
32.1146 6.73982 1.49741
45.3114 10.3589 2.33854
37.952 11.6825 3.02516
75.7307 14.6702 3.06188
38.0384 7.00047 1.67523
49.5386 10.9071 2.32822
34.2189 8.78771 2.08879
26.5913 3.72359 0.725535
67.3836 11.1152 2.4617
26.0919 6.44301 1.64632
43.3982 7.10203 1.59263
23.3334 6.37344 1.3511
50.4545 10.9131 2.58702
36.6806 10.6189 2.73369
23.5678 6.25741 1.8412
45.9164 9.93486 2.53941
18.8533 4.43603 1.20338
25.1875 6.39456 1.54716
36.0569 9.93983 2.52126
14.1465 3.36327 0.891596
25.1739 8.04856 2.15103
21.9524 4.60219 1.23569
36.4915 8.93628 2.46785
39.1142 7.45968 1.85994
39.8389 6.79749 1.55383
59.784 16.8298 4.72048
25.1574 5.85752 1.77322
22.2693 5.78174 1.6433
29.3581 8.38207 2.87229
40.6582 11.4341 2.85382
15.6269 3.7478 1.4198
35.7161 9.39477 2.74162
15.5113 5.03771 1.32438
17.2034 5.53906 1.69489
43.9141 12.7674 3.9544
52.4326 15.0254 4.21648
15.1665 3.71887 1.01988
29.1335 8.67926 2.62388
25.9305 7.6751 2.93229
49.3844 10.6277 2.72386
27.2661 9.1474 2.92425
31.218 8.60865 2.99605
19.0254 3.04857 0.682827
47.7792 13.1951 4.211
17.1397 4.77574 1.74393
37.0594 10.9897 3.3108
18.3696 5.58885 2.09658
43.1044 11.3059 3.41883
34.4127 10.0811 3.51056
30.7663 9.22737 3.15857
30.7197 10.206 3.06233
21.1009 6.85537 2.21568
29.44 8.36682 2.84136
29.5006 10.806 3.43979
27.2705 10.6717 3.89881
29.0021 7.19772 2.46342
14.6914 3.86575 1.56409
21.074 7.53236 2.71712
36.6629 7.86874 2.1568
32.8006 12.1124 4.13835
20.999 7.05449 2.16131
38.5083 13.2154 4.65051
18.782 8.05032 2.7032
13.8357 5.93438 2.56012
8.62543 4.37841 1.92015
29.8725 11.2565 4.37717
24.3931 7.53895 2.6355
50.0326 18.9059 7.47038
39.7688 12.9668 4.33452
17.3738 7.90711 2.79155
36.3072 13.218 5.6839
41.5 14.0541 5.3548
15.1866 3.72296 1.44741
15.0352 5.19861 2.18652
32.1625 11.4159 3.96694
22.7809 7.96765 3.15843
24.5196 10.1659 4.23803
23.0898 6.9666 2.45103
13.964 4.04081 1.76669
29.6559 10.1189 3.82373
31.2125 10.193 3.70695
22.0973 9.57352 4.1465
31.3334 13.701 6.3474
38.4978 11.2393 3.75014
31.9996 16.13 7.57649
24.3433 7.59943 2.87824
27.6729 10.307 4.25685
12.0509 3.88919 1.40196
25.5448 10.2316 4.69604
29.0664 11.2356 4.72576
23.9686 10.1331 3.79584
22.1173 9.89916 4.63407
30.732 11.2086 4.12053
10.3308 3.8147 1.35162
20.4443 9.61801 4.05363
13.7299 8.49595 4.31404
31.7909 13.6069 6.20038
13.0494 4.3519 1.59531
23.1412 10.8546 5.35822
19.0854 5.62051 2.19898
16.1644 7.13834 3.66441
25.5416 9.40143 3.97283
15.6348 9.74465 4.867
10.2954 4.8011 2.88587
35.5481 11.5151 4.68033
25.2934 10.7067 4.47797
28.092 12.1833 6.49459
29.1466 9.21636 3.77416
28.5437 12.3328 6.48532
27.0787 12.3304 5.44659
17.2339 6.56076 3.22691
28.4684 13.0345 7.38534
26.4068 9.29719 4.62451
35.4468 14.1899 7.48202
11.2863 3.64045 1.82338
20.6667 9.74326 5.79817
10.6408 4.59581 2.90717
11.9609 9.08223 5.91201
15.6168 5.2438 2.71015
14.6836 6.19153 3.71229
12.9922 5.26178 2.60677
18.2215 8.17149 3.84034
21.3286 9.7616 6.20049
7.79589 3.70926 3.62223
26.9916 12.5072 5.70191
16.2354 6.7139 3.10834
31.6025 12.1902 5.05384
15.7937 7.94799 4.91741
23.7481 12.4672 5.9056
15.789 7.39177 3.79551
25.2747 14.8882 7.71948
18.6303 10.7857 5.05053
15.0543 7.23735 3.92995
24.5891 15.0564 7.06363
9.49714 4.44504 2.37906
18.3744 10.646 5.08265
17.386 10.8947 5.82561
10.0456 6.03317 2.96307
11.7913 9.38407 5.68344
7.60263 3.83362 2.37585
14.4904 8.48077 4.35428
13.1703 6.95457 3.5213
9.56338 7.73203 5.33987
18.206 10.7615 6.44733
10.3151 6.19391 3.05983
14.9912 11.7172 6.96167
7.44157 4.60077 3.72348
12.934 5.72003 2.68834
12.3782 8.05656 5.5026
26.0886 14.7938 9.54894
11.3837 5.69732 3.49689
11.3082 7.02259 4.02973
10.9551 9.13926 5.61604
13.8075 8.01112 4.57703
7.0191 5.90937 4.95226
16.5833 6.72147 3.79345
11.9444 8.60373 6.0221
7.62555 5.70662 5.217
17.6891 7.97138 3.72439
15.3507 7.74452 4.54183
18.6618 10.5997 5.98138
10.235 5.7268 4.39236
8.90379 6.48954 4.94653
14.0261 5.96607 3.73329
19.1967 9.48637 4.9915
20.079 12.6669 9.01068
21.7877 15.7517 9.39046
11.5575 8.2652 5.37157
15.826 10.5627 7.64882
18.6452 11.8327 8.18529
6.23004 2.30368 2.08483
16.2696 8.04626 4.49906
7.22213 4.66838 3.73419
14.5306 8.25111 6.38537
11.321 6.357 4.33491
9.74628 5.67779 3.59894
8.65032 7.75792 6.72064
28.4118 16.0172 9.23591
6.42626 5.42398 4.22135
8.98689 6.01432 4.35945
7.47643 4.28925 3.97575
12.3616 7.27073 4.18059
12.455 6.52203 4.33087
6.97904 5.16362 4.28228
9.4344 6.85536 6.22626
11.8252 4.02084 2.59873
15.2477 9.73393 6.76292
11.8895 5.67286 4.41414
9.95138 6.04083 4.00802
11.9343 7.75496 5.35284
22.1924 17.3074 14.3222
23.6835 13.7265 7.7061
13.6982 7.17864 4.77713
12.1477 6.92069 4.85977
15.3129 6.9914 3.7496
9.19267 6.40198 4.81133
9.60564 7.04424 6.47534
10.8019 7.11714 5.37377
5.76606 3.80645 3.56628
14.0334 10.2402 7.34829
8.69055 4.44444 4.12443
15.1093 10.2602 7.87269
7.43361 6.10431 3.90866
7.99977 8.83159 8.76003
14.5306 7.25513 4.70723
12.4814 9.55054 7.827
9.46111 5.81169 3.65815
8.53738 8.00344 6.37212
5.3187 5.05659 5.23625
8.68044 5.58652 4.70931
6.69155 5.21091 4.14094
8.18954 6.0507 4.4849
5.3724 5.386 5.84819
16.9311 11.697 7.86957
18.5269 15.9165 13.045
11.8881 9.22724 8.35804
11.4903 8.92531 8.35853
7.42796 5.41764 5.4194
5.39856 4.60399 4.55168
8.74263 4.89961 2.59319
12.5531 10.3618 9.49834
6.06449 4.59368 3.90052
9.64629 9.09299 8.54829
12.4438 12.8163 9.49298
5.91307 5.24539 4.12457
14.9299 14.6488 12.025
10.4458 7.76362 8.02846
14.1154 11.9569 9.34246
7.90716 7.59499 7.45384
16.649 15.046 12.9293
11.1175 7.64488 8.1388
18.2458 12.617 7.88633
7.53615 5.66609 4.72382
10.6221 11.5788 11.6091
13.6856 8.8928 6.80272
16.0211 14.629 12.225
12.8368 9.80663 8.74931
6.52907 5.82176 4.31545
7.92647 6.67798 5.95543
9.83698 9.1997 8.68204
5.80119 4.01529 3.87627
10.6819 5.8104 4.63643
9.32928 7.8475 8.04834
12.2028 8.67347 5.90414
12.1067 10.5102 10.5075
7.9782 7.43608 6.6534
12.7175 9.97442 9.71055
11.2563 9.7582 9.65858
14.5782 11.5876 9.92666
6.28473 5.0122 4.71637
7.4838 5.38796 4.96861
3.85281 3.39721 3.90864
7.60482 5.58078 4.43892
10.2178 11.1178 12.0268
11.3646 11.8236 11.3077
9.09377 9.23057 9.63367
11.1877 10.3866 9.35652
7.21501 4.98433 3.9778
7.10781 8.54225 11.5938
15.0879 16.1693 13.4945
6.48761 6.5142 7.75358
14.4511 11.9591 9.72317
7.94435 7.79382 9.83868
16.427 18.8885 18.2142
9.02096 8.00207 8.45721
8.64615 8.83082 8.33845
2.30877 3.81868 6.06
9.4813 6.85132 7.18102
11.0694 6.74459 6.27174
10.5321 6.71697 6.0011
11.5163 10.1585 9.32399
10.9742 9.44247 10.5948
11.6611 8.3017 7.1643
14.5426 15.1036 17.6853
7.15539 5.62595 5.97164
9.71068 11.4882 13.1822
8.17082 5.05103 4.63608
9.61331 7.50457 8.24148
16.3289 12.5345 9.49693
12.8436 12.6639 14.255
13.8635 13.7629 14.4456
13.0592 13.4925 13.9572
6.67379 6.12993 6.43815
7.74044 7.27225 8.74321
11.8791 13.9702 15.8877
9.5115 7.98278 7.21725
5.90452 6.20399 7.28647
7.26959 6.86674 5.04646
4.25551 6.46813 8.3779
6.36975 8.11644 9.31972
9.48482 12.8643 17.8632
12.9788 11.816 8.17885
10.8986 11.813 12.6825
4.91339 4.87683 5.34475
14.6194 18.5057 19.3208
5.41596 5.98145 6.5365
5.21881 8.87621 15.5245
8.43503 7.46494 7.1841
7.64874 7.55538 7.25981
4.58161 5.18262 5.68052
3.40302 4.61024 5.68446
6.27945 7.72176 13.1755
10.3958 9.53775 7.60793
4.92609 5.33092 7.07334
4.52364 4.824 5.29048
6.94602 7.01351 7.94375
6.48877 5.9634 6.27316
4.39039 5.06677 4.8956
3.04519 8.7133 14.7068
13.4666 9.67574 7.05103
7.3331 9.79994 12.1668
4.74174 5.09818 5.39877
8.90024 8.48372 10.0899
10.2591 13.5394 16.4093
12.962 15.6921 16.7455
8.07714 10.1816 12.018
7.53823 8.46592 10.8988
5.28502 7.60641 9.4187
5.70416 6.03763 9.11854
12.9322 17.8389 23.3605
11.9797 11.5166 9.31036
4.33641 6.43432 9.55767
5.12367 6.13674 9.75797
10.0499 12.7696 13.1267
2.64868 4.55812 8.07948
7.30392 7.92347 11.6076
10.1555 10.4953 10.9265
3.76607 6.94187 9.93236
6.03402 3.72553 3.96681
4.49217 5.1623 9.19261
16.7246 19.0884 20.8968
10.2103 10.138 13.2624
2.82954 1.75199 3.21585
12.428 12.2366 13.8548
10.1868 13.1961 16.621
8.87527 9.52356 9.72934
5.59253 6.588 11.9155
13.4868 14.7888 15.2065
8.51579 13.7902 17.7781
5.83524 6.21335 9.42622
13.3187 13.6822 14.4154
9.42928 8.86185 10.2189
9.09463 12.1304 14.1595
3.42148 5.85297 9.88678
3.7498 5.197 5.45943
2.99661 5.26354 11.0552
8.45148 6.75812 5.30683
4.26713 8.31409 9.76646
5.17247 6.53222 11.0677
8.06246 12.8501 13.9729
6.02145 5.68875 7.89434
5.48363 7.37465 8.82603
7.32605 9.99803 15.0452
8.82479 11.8482 12.9309
8.91098 11.7206 14.4587
6.12043 10.9556 13.5167
2.79319 5.87684 10.5972
4.56511 4.06485 5.88094
5.43085 8.97091 10.2428
7.50031 13.1199 22.1719
6.91236 6.0194 8.8745
6.63019 8.94382 11.0713
2.53584 5.38291 11.0735
6.16159 8.234 11.0159
2.16314 3.34675 9.6427
8.10253 6.72669 7.80108
5.14279 5.02477 7.12577
8.40001 9.65881 11.6856
5.76556 5.79301 7.7814
13.0269 15.949 22.5533
8.57052 10.0406 10.3972
4.96493 7.48115 10.8282
5.47668 11.024 18.9592
12.3847 18.355 25.7473
7.25269 9.14918 12.178
3.94636 4.14641 5.11953
3.99051 8.8114 20.6502
11.8435 12.137 12.2144
4.78814 7.3292 9.92288
4.07733 7.50491 14.4616
3.54892 5.33168 7.82684
3.15877 3.46293 6.83036
8.22651 10.8743 12.2345
4.40568 5.15839 4.44729
5.98944 12.9973 16.3625
4.95044 10.015 17.1528
3.69692 6.76085 11.9184
2.82975 3.32259 7.49067
2.82999 4.08932 11.897
11.2015 10.436 12.9391
6.47685 6.25727 8.62245
7.11236 9.81406 11.1522
4.85819 8.36718 14.4087
4.77011 7.05024 8.48938
3.09317 5.30673 10.2288
3.95741 5.31741 8.44734
6.46562 9.36507 14.6552
5.74181 8.19371 11.6817
3.42017 4.56994 6.2028
1.38544 2.12016 4.54372
3.21726 5.36253 11.3686
4.30083 3.52888 5.90705
5.38091 5.87741 6.9206
3.54972 4.42877 8.28091
13.0991 21.0829 28.6742
4.8794 8.37112 17.1922
6.08249 8.37879 11.5368
2.95951 3.45789 8.26538
6.86313 15.0117 25.5729
8.24392 10.3365 13.0809
7.2081 8.65319 10.3601
5.81234 10.5013 16.9629
6.48254 9.33849 12.4084
4.99179 6.49804 12.3517
3.55235 4.5739 5.98552
1.57184 3.70065 7.38143
3.41259 7.48331 13.9652
4.24515 4.46284 6.53928
3.29125 7.28274 11.598
5.10997 6.4012 9.23643
2.5573 5.11206 8.55898
3.13941 6.10632 9.775
4.62656 6.89466 10.7764
6.03679 8.67661 11.1462
2.12579 5.18168 8.94889
5.15904 9.88265 17.0208
6.16504 8.44009 11.5682
5.04159 6.44268 11.5512
4.88506 10.0746 18.6635
6.29326 8.73104 10.8809
4.47411 8.21672 10.9094
4.08301 8.01993 16.7991
6.51494 13.2047 20.8795
2.2735 3.61661 8.34776
3.52179 7.73917 16.2552
4.52388 5.64061 8.76541
1.89353 2.77049 7.41749
3.98853 3.15376 4.69629
3.943 5.36086 9.67077
4.63164 10.0739 22.1563
7.95715 13.4114 16.9588
2.61498 2.18662 4.25885
2.40333 4.52942 8.51622
4.2189 6.35567 8.71885
4.87799 17.2463 32.5788
9.47605 9.33353 13.7604
2.51631 4.34664 10.237
4.87448 5.87555 11.1952
3.28303 6.17745 8.89131
2.94122 7.97517 15.9443
5.79923 7.52815 14.3231
5.01268 9.67634 14.3051
2.47678 4.97561 9.67451
2.06642 3.31571 8.72368
5.61707 8.09476 15.1156
4.57693 5.95536 11.6424
6.28837 11.7784 22.5937
6.06479 5.36469 9.547
8.30032 16.0042 21.2611
1.81765 4.5493 12.9846
7.78204 11.8578 16.6993
2.57718 3.75436 10.486
5.32334 6.74009 12.2736
5.04347 5.30967 9.12021
5.85171 6.87292 10.1755
5.37208 6.15805 6.69831
3.68085 6.85056 15.6496
9.34418 13.2718 18.7411
2.94024 4.80102 10.6065
6.18522 11.8602 19.8148
4.59625 7.69046 13.5595
3.02426 6.56388 15.8758
0.994168 3.3808 12.6718
5.08604 7.57671 14.9418
4.03819 5.65452 9.00204
2.763 8.45685 21.5063
5.03076 6.94398 13.6631
5.11458 5.70485 10.2465
2.82987 4.86221 9.36971
2.87669 4.59059 10.7373
6.45971 12.2747 21.2942
3.88518 8.79565 16.858
2.08932 5.69745 15.5252
2.39224 3.88637 18.9116
9.99975 18.2341 21.2949
1.70218 3.28024 11.284
4.3974 5.55203 6.61771
0.854048 2.76995 9.44811
5.26361 9.35517 13.9785
3.82854 8.10565 21.1592
3.23168 5.8945 11.239
6.55812 14.2678 30.8672
8.15291 13.6556 22.6649
3.22593 6.85993 17.3982
4.60729 7.83117 11.4159
4.34731 5.92261 11.0569
3.06262 7.64454 11.7541
3.20213 7.42922 19.3105
7.01257 11.2207 19.36
5.46649 10.4948 17.4849
5.77775 11.1993 23.3972
5.44192 12.1039 19.6794
5.17688 13.9184 28.5504
8.28374 14.4368 19.6755
3.38234 9.79361 20.7601
6.15323 10.5534 13.8679
2.18363 4.49548 8.99989
4.2393 10.0785 17.1462
2.67298 4.48522 8.0505
3.44958 13.6825 26.6403
4.03049 8.99239 22.656
5.5228 5.61321 8.02051
3.90318 11.4253 22.9855
4.11113 6.18323 11.2768
1.39541 6.63002 20.3728
4.16558 3.49895 10.7943
6.48404 7.57061 9.87535
2.77965 4.64733 9.1573
1.71479 4.80145 8.7393
2.46125 5.0332 13.6145
5.55786 13.2967 27.6859
4.14188 7.08688 17.3499
3.91142 6.31908 11.6282
2.91386 4.89797 15.0365
3.44471 6.6536 11.8602
3.78184 6.98773 15.5073
4.78919 8.38294 19.3864
6.06021 9.48511 13.1949
3.81585 6.85496 14.0334
5.92364 12.108 27.3339
3.77158 6.52368 12.3723
3.07702 7.55977 11.9941
2.29089 5.98044 15.6789
4.48971 8.26339 13.1684
2.66481 5.0068 12.1299
4.75573 10.5738 20.7301
3.3949 7.24621 13.4189
2.47446 4.72347 9.46139
2.85094 8.15972 18.771
2.21296 6.63006 21.3182
7.46689 15.3634 24.0369
3.92252 10.2954 27.7565
3.45867 6.48548 12.2999
2.61027 5.87188 10.5877
1.47994 5.42486 19.9208
3.45442 7.08123 15.841
3.4461 6.98219 13.6039
2.15152 6.38608 23.8387
2.86574 4.87398 14.6273
3.0998 4.45454 14.3828
5.98874 12.4769 27.5707
4.00618 3.81048 3.69152
1.68382 5.27751 10.7412
3.06404 8.20326 22.2328
3.12426 10.1891 32.1537
5.75767 5.02504 9.95952
3.3785 6.09332 14.125
4.54874 6.76988 15.286
2.3502 4.00728 11.0784
2.81496 5.2837 16.6134
3.73541 4.78453 13.7771
6.09519 9.96857 19.8392
4.85153 6.53676 14.6063
5.84373 7.65691 12.5287
4.94092 9.32124 18.7891
3.46185 5.77512 8.92939
3.54876 7.09727 16.9266
5.37508 12.7967 23.8592
6.14647 13.0954 30.3043
3.60752 7.81236 17.9702
3.68991 6.09179 10.8555
4.95688 12.5227 24.4622
3.83466 8.1039 19.4813
1.88626 7.07121 17.8105
4.87932 8.25926 10.2571
2.48721 10.2353 22.3386
1.50694 4.37025 15.5246
2.43562 6.64596 24.5053
4.92201 9.9672 17.4272
2.53186 9.95419 34.0015
4.70896 5.84015 18.0521
3.19014 6.64803 18.2274
4.134 6.03415 7.85813
2.77303 9.72927 22.3314
3.92743 7.67503 21.3123
4.18645 9.67829 20.8365
3.68852 7.73191 21.1783
4.23475 7.91395 22.2584
3.14399 3.90558 14.5104
6.44359 13.3351 23.1164
2.71317 5.62219 11.5989
1.4277 3.08963 16.0348
5.36071 11.4544 27.1807
4.75651 9.04212 16.1226
3.0472 4.24018 13.4656
4.56702 9.94092 28.2281
6.73395 9.3219 15.8931
2.68441 3.4756 6.64178
3.12261 7.3375 19.9717
6.46266 11.3694 18.7961
4.21327 8.89533 13.5878
1.50367 5.4501 15.0815
3.14094 8.4652 27.3327
4.04983 8.64548 22.6127
4.22587 9.08772 21.951
3.56691 5.81105 17.7147
3.78863 7.30606 13.0449
3.27838 7.18553 15.8536
1.40169 6.1224 24.5057
5.24892 10.9068 23.2148
2.85702 6.74448 23.8718
4.84608 9.79673 18.6942
4.19 7.97845 17.5574
3.88468 9.66157 21.5401
4.93207 10.0392 20.7673
3.14253 8.48641 20.454
2.48845 4.79603 11.8809
4.57136 10.9373 22.9451
3.38572 6.43745 13.8858
3.20541 12.7036 31.7684
3.94459 6.69828 14.0216
1.80389 3.98812 8.97519
2.72641 6.74131 16.305
2.88505 6.14749 14.6047
2.48431 4.27732 13.0215
2.847 5.81108 13.5507
2.15378 5.11091 12.5082
2.43855 7.14855 18.789
4.77103 12.0758 34.9972
4.58951 8.30331 16.4515
2.98661 7.69567 16.4533
1.68693 4.31912 13.1488
2.18634 6.00219 16.3355
2.23628 6.56832 24.6105
2.9351 6.08931 20.5994
4.89244 9.63939 26.0388
3.79804 9.40796 22.4511
3.29656 9.19513 18.6498
1.9996 6.13214 26.4668
2.92717 5.96753 9.9197
1.27821 7.2794 33.0602
5.75323 15.8266 34.7276
2.86144 1.98984 8.8375
2.1467 5.2913 15.7198
2.40837 4.15534 15.7314
3.19255 9.86302 28.2835
2.96176 4.47902 10.9993
3.01105 10.5038 46.1612
8.94998 21.1283 31.2426
5.30787 12.0209 21.2696
2.14491 8.03845 23.8919
4.43692 11.9874 18.9575
2.62184 9.96704 23.0043
2.23437 10.2226 30.9335
4.347 7.57864 21.1509
2.15937 5.40579 22.9251
5.66488 13.0571 24.6966
2.0822 9.08943 38.3241
5.23238 6.33987 11.2777
3.11966 8.11709 33.4912
9.3377 21.6849 37.0427
2.54566 6.50852 12.5695
1.86385 5.84128 17.3485
2.40352 12.0705 46.9157
6.6678 14.3788 25.1884
2.683 4.8408 22.1645
6.13225 17.1655 34.134
2.2571 8.38563 24.8167
2.53308 6.18514 19.0316
4.15759 11.9245 24.9381
2.25268 3.189 8.48055
1.52995 6.90145 21.6025
2.4902 5.85899 27.1116
5.74843 9.87028 18.3478
3.02928 11.0061 30.3322
5.87297 12.8729 29.4528
4.63101 10.8321 17.4794
2.66543 7.76291 17.7982
1.81266 6.50343 19.6896
3.5903 9.60835 25.2812
2.58566 12.5033 29.3558
3.08698 13.4274 31.2909
2.0829 6.88137 33.2003
4.16986 7.09437 18.2249
2.1465 6.18018 25.1951
3.65171 5.25086 12.1296
1.69658 9.95269 38.3198
4.30741 5.4313 15.2327
2.42893 5.56321 20.9446
3.36623 5.43301 11.4866
2.49991 5.5027 22.7788
3.37617 6.21933 17.7896
3.37367 7.76849 22.3882
3.87149 6.53376 7.64183
1.64431 8.37789 30.416
3.89962 8.3607 36.4444
5.2051 8.07824 14.5243
4.19376 9.59257 22.6389
3.82322 13.4918 30.6729
2.32209 6.15671 21.5118
4.29666 9.07053 19.9916
3.38227 10.2981 36.0172
4.1588 8.20924 26.2654
4.55217 7.35802 14.6046
2.91967 6.58313 18.4707
5.10641 16.9477 43.9259
2.13007 6.63797 23.2245
1.75442 6.79807 26.3189
2.92249 4.97575 17.4842
3.34447 7.52982 18.7042
3.158 6.23894 16.1557
2.24376 5.21731 16.0826
4.13757 12.3595 30.8077
2.59366 7.47369 18.5119
1.7658 4.1371 20.9972
4.09792 12.0615 28.6383
2.58135 5.68857 18.0072
2.4275 8.71951 24.5026
4.01367 10.3485 22.7452
5.56871 22.8509 60.0344
3.32829 9.09941 28.8407
2.56398 9.31184 41.5149
3.7458 9.95665 29.8897
2.94425 8.55615 30.65
3.85905 6.97915 29.9534
3.627 8.38717 20.4284
2.6555 7.77262 27.2725
4.55352 8.52107 21.1933
2.17254 4.33654 13.7557
1.89605 3.42174 8.67353
2.41933 9.54081 36.9287
4.96655 11.0516 19.5007
1.93535 5.68644 22.1787
3.83251 10.2145 30.5189
3.28152 8.23298 15.5545
1.95353 4.35876 11.4182
1.3133 3.05593 15.2008
2.19417 10.0998 26.7292
2.64546 6.44266 23.644
2.8374 5.88788 14.3982
2.64248 6.89161 22.5215
2.1807 7.60905 26.0535
4.272 18.4758 58.4856
5.73763 9.53111 20.3528
2.27369 7.98835 24.334
2.19799 6.47919 27.7231
3.75548 5.92343 11.7574
2.61825 8.21885 27.9941
3.16333 14.9934 43.4486
4.61961 10.3125 26.5599
2.70562 4.61242 10.7074
1.39221 5.29399 18.0351
2.93719 5.56845 18.0153
3.21325 7.19051 10.4159
1.22917 9.05676 34.8714
3.33015 10.0127 30.8015
2.70915 9.47635 26.4301
3.02176 7.369 25.7392
3.04012 6.15984 20.1461
2.85729 6.74359 19.2159
1.97264 5.44446 16.6111
3.03238 10.2963 37.7167
4.20056 8.28802 19.8643
1.15734 4.00463 16.7651
2.2938 5.07004 14.0729
1.59111 5.17963 20.3201
1.67003 4.59606 11.7304
1.6325 4.31947 16.1785
2.97359 9.98138 23.2661
1.88594 5.09962 15.3906
1.14236 5.35935 30.1537
3.14685 8.26073 23.346
3.45822 7.48592 19.1624
3.85384 13.5093 36.9834
2.40343 7.17256 25.6917
2.95444 7.44569 14.1519
1.56352 4.81704 18.5065
2.62124 11.5145 30.9369
1.81159 4.17055 16.4699
2.52569 6.97652 12.5934
1.2499 3.78288 20.6388
2.90368 6.06037 19.2245
2.05943 6.77705 23.869
3.15426 5.82862 19.7015
3.40431 10.1194 28.2633
2.01817 5.76586 21.9068
2.31539 6.20855 23.8488
3.1755 7.94618 23.4719
3.6917 11.215 34.3925
3.68066 9.929 32.6523
3.37119 6.37775 13.894
1.57589 4.5414 8.86721
1.20784 5.14905 18.806
2.33726 7.0332 20.5103
1.20367 3.29403 25.9604
3.03915 7.97743 14.2918
0.762116 2.62001 17.6094
1.35895 4.70729 13.6005
1.74455 9.33225 42.3335
4.02438 8.92875 21.8584
3.10011 9.88246 29.8266
2.34723 5.35938 21.0832
2.38079 6.0188 16.5263
2.51892 7.1937 18.4905
2.69735 5.6054 18.8734
2.91859 8.53518 17.3518
1.85993 6.67097 22.5834
3.45582 14.9398 43.7109
2.73994 10.7369 45.758
4.73891 10.3866 26.6855
2.86579 10.9582 26.7005
2.37447 6.57302 22.1108
1.97065 4.19047 22.7487
3.34227 5.86123 12.68
1.48489 7.23649 29.0532
3.02086 6.42869 29.5253
3.89967 7.7559 16.957
3.03831 11.6195 32.4656
3.26054 9.39632 22.0103
2.13389 7.54972 36.4955
3.82247 4.42783 8.90368
2.35717 8.24194 35.8514
4.38026 12.8832 33.6427
3.50602 8.54287 17.0114
1.48274 10.0457 61.041
4.50405 8.87381 14.9185
2.0694 5.82432 12.0509
2.1351 14.2251 53.0807
3.38078 7.79599 39.1451
3.91916 6.82605 19.5645
3.03501 11.4111 25.9004
1.91756 6.72346 40.0291
3.93761 7.83547 6.77437
0.811447 4.18448 14.0584
2.40693 11.5727 36.4197
3.2239 6.14881 18.7143
2.12796 11.1147 47.9374
3.58081 6.14367 27.2466
3.87572 12.7191 30.2543
1.78917 6.29473 30.1848
3.38267 9.61804 25.8593
2.78359 7.35598 21.8937
2.37777 5.46404 21.577
1.81119 5.49864 23.9304
3.11355 7.11623 13.7801
1.28181 4.38127 24.501
3.03987 4.85432 20.7575
3.01615 6.57652 16.957
2.05314 6.76939 17.8387
2.35743 7.73887 26.4625
3.07031 8.97369 18.7802
1.34458 5.02714 12.7498
1.53569 7.56809 25.2389
1.91234 7.79304 36.8376
2.27763 7.95118 36.5857
3.11577 9.00309 24.3654
2.81227 10.1827 25.5118
2.30239 7.17719 37.0619
2.83 3.65151 13.386
1.92956 7.00883 44.5838
5.91208 23.2697 59.6043
3.7556 12.376 36.713
2.54035 8.77284 37.8202
3.19214 11.515 29.4103
2.36259 3.56683 21.4582
2.50682 7.25912 15.6922
1.21038 3.88404 13.2331
1.87786 9.22516 33.571
2.75165 10.3791 39.3647
3.51553 11.4116 34.0391
2.97064 12.3327 27.9569
1.30686 9.59485 34.4398
3.37038 12.8896 49.9516
3.22693 9.46148 55.1902
5.94531 13.7388 20.7606
1.00554 5.67037 24.973
2.97125 8.51117 27.179
2.15917 15.0589 52.6655
3.29983 4.91219 34.8901
3.73021 5.78736 10.0676
1.47995 11.5692 47.7476
3.07525 5.32239 20.7076
1.61496 7.04845 35.7395
3.5237 7.1227 20.9114
2.29643 6.26922 22.1869
1.33871 3.11135 13.2141
1.43222 5.46059 26.3261
2.71048 5.21782 17.9226
3.14568 11.7668 21.7713
1.88746 8.88815 40.3976
2.6068 7.57261 25.3968
2.44329 9.12129 34.9176
2.66064 7.3361 21.7022
1.74443 6.88738 30.1773
3.32845 5.6259 15.2914
2.14674 7.65436 33.7635
2.41951 6.70089 23.5297
1.72314 8.45867 18.902
1.71991 10.1167 40.1311
2.94195 7.92565 33.1224
2.28301 7.53865 38.1615
2.72131 3.94884 21.7569
2.97069 10.2251 34.2863
2.32399 4.06932 24.1129
3.2831 10.1751 36.7431
3.18929 7.33667 18.5018
1.42137 3.43622 14.0621
1.71892 10.0087 47.087
4.57807 11.3078 47.2548
4.50136 16.6524 38.8213
2.67923 7.18393 28.8616
2.42476 10.1236 36.5281
3.42107 7.54625 30.0528
2.63008 10.5968 24.6023
1.80213 5.336 29.0139
2.93485 8.3795 22.0571
2.13545 8.0097 26.1363
2.58686 7.99833 22.5316
1.78893 5.93795 32.2238
3.30255 8.98926 20.112
1.97993 9.47044 33.1563
2.9845 7.70224 22.5667
2.08706 9.58948 34.9123
3.07725 5.50561 17.4881
2.61773 13.7287 40.4144
2.37391 11.9736 32.7912
2.81602 11.1048 22.3729
1.30858 3.62431 12.8306
1.18476 8.49759 36.4553
2.17245 3.42305 18.4353
2.38707 8.49334 38.451
3.55314 17.9477 39.3076
1.44821 5.00536 24.8026
2.4033 5.76061 14.4496
0.700751 3.6778 20.9837
2.19801 7.92721 16.7797
1.05987 6.47531 33.271
2.3882 6.14573 18.8387
1.64695 8.75294 38.1165
3.03934 7.48519 19.2449
1.55069 5.1078 29.395
2.65283 12.2545 36.8518
2.09542 6.54996 21.5971
1.05805 2.43578 15.3229
1.32422 4.63448 18.5971
1.53007 8.04069 48.1385
3.69789 6.45272 38.3702
3.19354 7.7273 30.014
2.85525 6.63471 19.6908
2.83067 9.47917 28.4539
1.86588 4.89815 28.3659
2.24783 6.94866 31.4459
3.60963 11.0345 30.2475
2.08494 12.673 74.4992
6.07299 17.1683 48.7085
3.39868 10.7502 15.1436
0.890561 5.86071 27.343
1.35792 4.27591 12.5398
1.48807 7.68068 19.0799
1.24769 2.15799 16.4666
1.70932 5.71567 25.1761
2.12552 7.12101 20.1894
1.15503 7.56631 28.4582
1.59701 7.50197 17.6943
1.31894 3.53236 11.4616
1.38779 9.34931 35.9245
2.09812 5.3845 33.5968
3.30373 8.7414 16.8484
1.51561 8.26248 36.3182
3.02509 10.3107 22.0013
1.26469 8.99348 32.0531
1.97289 5.61064 25.4828
2.18136 7.04383 32.6448
2.73514 12.7043 47.6987
3.17449 6.85719 20.7176
1.57107 8.73013 23.3532
1.60148 9.08575 42.2072
3.29026 9.43323 32.9174
2.28522 3.77552 13.5844
1.62369 6.19265 31.2097
2.60624 5.95784 23.6291
1.72724 7.35288 23.1961
1.66851 6.73759 38.6307
3.15069 16.4012 54.5842
4.33801 6.17995 31.2916
2.60454 11.2997 33.5014
2.57313 7.29241 37.9343
3.36453 6.46891 22.5934
1.96396 5.00613 20.0821
1.75884 7.60682 17.1134
1.68137 8.05635 23.9799
1.84059 8.34674 44.2233
3.71971 5.54812 32.7589
3.84447 7.06301 26.5777
2.6939 7.44392 10.8761
1.16935 6.5513 28.2398
2.63151 8.81259 9.10701
0.70631 7.70423 22.5987
1.41848 6.41437 24.3561
1.93925 5.36664 24.3887
1.72684 7.04547 42.4885
3.70897 7.7847 24.9123
2.99495 12.4976 41.9358
3.17755 10.6759 24.8979
1.18644 5.48516 31.008
2.07913 6.15924 16.8541
1.06664 5.47939 21.3375
1.32918 6.11018 34.1428
2.14658 2.3881 37.1044
4.14354 15.4335 45.4906
2.87782 10.4212 30.3156
1.64679 4.0008 23.4767
1.87658 7.07356 27.9055
2.12848 5.95957 27.9625
2.10968 8.76555 46.0065
3.68114 8.77973 32.0976
3.23892 9.5679 12.6942
1.49501 11.0368 31.5913
1.36673 3.73513 11.4326
0.83551 2.74197 14.1032
1.35471 8.41432 24.189
2.39613 10.4499 33.0691
1.96271 5.12253 17.9195
0.861972 3.69185 31.8994
2.81419 9.79005 31.3066
1.7411 6.64354 28.1147
1.53629 5.41066 23.5794
1.55967 9.26554 50.1155
3.12608 6.01761 28.8516
2.38227 7.46435 22.0194
1.97899 4.85649 17.2231
1.45192 6.9731 21.4348
1.35861 4.86789 21.199
1.62752 8.63935 39.4825
2.19619 9.09687 40.1785
2.69381 9.77681 15.2345
0.800424 5.99669 31.1632
2.23871 5.47823 21.2904
1.68805 5.36135 31.7428
2.29752 8.56415 16.8624
0.906147 4.12121 19.827
1.12264 4.94655 16.2665
1.01453 4.81518 26.2992
2.27227 7.36913 38.4484
2.4981 6.88786 31.3845
2.63881 11.5342 52.0357
3.16797 10.3602 20.5176
1.3531 7.6653 26.2371
2.31299 3.93792 15.3817
1.45134 6.95875 32.0382
2.54384 4.63968 19.5514
1.46103 8.94768 29.0086
2.76786 5.78307 13.465
0.918508 4.66757 23.4611
2.04636 15.7787 48.572
2.54338 7.43674 31.8577
2.52096 7.01106 38.4881
3.27475 10.2802 25.983
1.70832 7.75589 19.1159
1.03048 3.86084 15.6761
0.843211 5.49547 29.6496
2.3267 5.91 14.5222
1.30448 9.09964 29.9076
1.57844 8.79311 60.7789
4.37544 6.1928 28.3095
2.65149 8.44275 28.2432
1.59681 4.21664 24.7581
1.9538 5.54629 30.8048
2.11191 8.94245 25.4516
1.60275 5.53157 50.717
3.4381 11.9562 13.9265
0.839674 9.22136 27.3159
1.78792 3.44226 27.2461
1.96524 7.2743 44.7165
3.10002 8.23101 17.5841
1.52157 9.02703 38.1135
2.18508 6.02297 33.1249
2.32694 5.91813 39.2215
2.52871 12.2325 23.9189
1.65885 6.87686 20.0425
1.3563 3.94953 21.0321
1.75543 3.77013 19.6948
1.75149 8.35927 26.9375
1.57177 3.22867 29.9963
2.83749 10.5695 24.2593
1.65884 8.19803 24.0265
1.49508 3.98647 29.9573
1.90142 6.69843 46.1876
3.85616 11.0356 21.8572
1.66189 7.67302 23.986
1.61517 5.84082 24.7229
1.34436 5.30982 15.9465
1.28824 13.7552 50.4925
3.6765 9.02282 49.4782
2.96271 6.79285 10.3017
0.983018 9.91577 38.6407
2.43341 7.22768 63.0496
4.2395 15.1147 46.2048
2.92506 5.99416 12.1755
1.29115 6.92609 39.0223
2.6904 5.05485 29.2241
2.25164 9.7612 26.0459
1.82833 11.2574 34.9266
2.82716 9.54268 15.706
0.946698 8.55403 43.729
2.8175 8.05253 36.0444
2.41256 10.8555 37.6507
2.94121 6.60349 13.5121
1.40313 12.5418 28.8876
1.75921 5.77149 28.263
1.83455 11.4461 66.3652
5.03221 4.2882 27.9771
2.68559 7.20682 16.8315
1.7502 5.89884 26.1458
2.45667 7.86964 44.4401
3.83437 10.2976 30.1582
2.19737 4.08132 16.8868
1.3225 6.07899 55.3912
4.31553 5.38127 19.3426
2.10767 7.16754 19.7591
1.94385 12.9087 32.5428
1.84766 7.43493 27.6296
1.76066 3.91944 37.9972
3.06027 7.66932 29.8079
2.54879 12.636 34.282
1.99305 7.69845 15.4435
1.02802 4.41683 33.2417
2.62142 7.54354 19.4933
1.88075 12.6381 45.4496
2.51428 5.99941 19.0447
0.94905 6.15302 17.9333
1.66611 6.84236 41.3856
2.34812 8.18074 30.5344
2.56072 8.06911 22.7101
1.53669 4.58734 24.5208
2.17351 8.72789 29.4792
1.75487 7.63073 41.1991
2.28451 9.17186 19.3388
0.931481 5.89965 21.9241
1.55426 11.6762 60.0426
4.07584 8.3267 33.7854
2.41879 8.20792 44.4246
3.4072 10.2463 44.9646
3.35028 10.1842 29.0612
1.37674 4.80331 29.2859
1.878 6.35419 15.6774
1.43987 6.74359 30.5809
1.48622 8.17604 26.6216
2.20153 4.23514 14.4463
0.85727 8.45737 42.864
2.40751 7.61715 23.0766
1.6348 7.3296 28.3972
2.25505 6.34859 31.1095
1.85256 7.35557 24.1559
1.50906 6.39704 21.3201
1.43164 7.30223 55.0764
3.09984 9.28556 28.694
1.79513 10.671 23.3857
1.64905 5.8629 16.6742
1.26559 6.68811 28.874
2.13471 6.7102 36.3788
1.95135 10.0215 34.6453
2.65115 5.97954 26.5734
2.29963 7.24725 21.8613
2.19613 10.4117 43.4305
2.71078 12.0775 34.8125
2.23586 7.54401 48.8044
3.44657 11.9432 35.6071
2.1882 2.08001 15.9737
1.05269 8.71741 33.8839
2.56945 6.56937 32.1151
2.23924 9.68548 33.1089
2.43902 7.5178 31.5057
1.74155 7.96207 27.0497
1.04824 5.96678 17.5762
1.17092 4.38794 10.9693
0.7268 2.13747 20.7525
1.58129 7.579 42.2653
2.85194 7.3717 20.7697
1.79287 15.0878 44.1042
1.90269 8.08287 23.4666
1.59403 4.18472 21.5328
1.76968 5.28552 18.8905
1.15485 3.19752 26.9963
1.56509 8.69204 40.6703
2.85283 11.9283 50.3643
3.17565 5.71219 25.1597
1.58592 10.1968 22.2314
1.66051 8.20522 34.8753
2.46358 5.9678 27.4821
1.47017 6.80638 33.952
2.1171 9.16817 36.6798
3.00501 6.04869 26.0185
1.71912 7.18922 28.8397
1.43779 5.03647 18.9972
1.32956 7.98322 20.1458
1.54979 2.65611 27.0699
1.65726 6.39247 20.2429
1.45384 2.94191 14.5517
1.39448 5.11262 25.3358
1.60222 6.86528 18.0502
1.23187 6.00543 28.6436
2.44359 10.0374 34.5497
1.96027 6.83929 41.1148
3.06546 8.24549 21.699
0.866483 3.54595 15.5048
1.11279 5.69407 11.7271
0.982665 2.3998 14.8394
1.14549 4.90777 38.225
2.47195 7.41468 20.1472
1.38465 6.38857 18.6649
1.18187 4.6463 18.688
0.914368 3.83897 28.2523
1.86615 6.63149 46.7935
3.21498 10.4448 24.4558
1.76913 6.12895 20.2141
1.69442 4.67588 18.5464
0.774084 11.9969 44.6908
3.9255 9.67767 28.97
1.86909 4.28755 26.6285
2.16165 9.74521 37.0984
2.23485 3.64085 17.5783
1.18226 10.5115 53.3262
4.52371 0 0