# pn-170911/RbIIA-23-RbIIA-1280-1959.psd
# Power spectrum* (dif=0,1,2) (really just |FT|^2)
# NOTE: only the first half! (symmetric)
# weeks: 1280-1959
# 2184 clock-days, 743 excluded
# PSD: 1441
8033.27 0.252474 0.0132136
939770 16.7441 0.00682301
3.95919e+06 80.6709 0.00814045
465348 13.7549 0.00696199
322648 18.3189 0.00793042
147870 10.1552 0.00778415
99001.2 10.4882 0.00845673
64784.4 8.84626 0.00860195
53572 9.51976 0.00948361
39636 8.37878 0.0099719
31334.2 8.10074 0.010314
25603.7 7.94482 0.0110363
22180.1 8.24458 0.0120105
18331 8.2441 0.0133002
15895.7 8.10572 0.0140517
13540.2 7.65137 0.0150592
12080.3 7.90307 0.0161958
10772.1 7.92657 0.0172462
9378.03 7.6577 0.0180229
8224.14 7.46619 0.0192559
7535.36 7.92382 0.021174
6799.52 7.53484 0.0228295
6200.3 7.65371 0.0243266
5609.75 7.42072 0.0255671
5196.24 7.30765 0.0268895
4854.8 7.50779 0.0286702
4375.68 7.11151 0.0297986
3971 7.17885 0.0309551
3842.53 7.51902 0.0346055
3541.5 7.44741 0.0365775
3314.08 7.36336 0.0382631
3115.04 7.16918 0.0402732
2867.74 7.21503 0.0415904
2678.13 7.38138 0.0438867
2532.62 7.09452 0.0470991
2363.96 7.17579 0.048326
2245.51 7.2981 0.0514135
2175.04 7.39677 0.0553164
2026.59 7.30383 0.0563758
1857.94 6.91622 0.0567174
1782.7 7.01242 0.0605871
1718.15 7.17924 0.0632866
1631.36 7.18079 0.0656502
1591.15 7.26032 0.070813
1461.67 6.89133 0.0698575
1436.55 7.07797 0.0746219
1379.57 7.2966 0.0800044
1329.18 7.25851 0.0820478
1268.63 7.10889 0.0836239
1253.95 7.33885 0.0896181
1154.02 7.16077 0.092276
1138.49 7.11135 0.0942863
1124.21 7.249 0.098389
1046.18 7.03481 0.100665
1026.54 7.26415 0.107379
982.633 7.48071 0.113259
945.936 7.32572 0.115572
915.031 7.22984 0.118987
871.489 7.09247 0.120727
851.41 7.44112 0.130706
825.515 7.40843 0.134379
795.432 7.29429 0.134084
760.186 7.32692 0.140773
726.591 6.97963 0.136769
716.719 7.20186 0.148153
698.503 7.16684 0.150136
663.205 7.03619 0.151122
635.275 6.90415 0.1529
622.582 6.97914 0.15967
617.403 7.39627 0.173745
614.187 7.22158 0.176557
569.591 7.13073 0.177764
559.628 7.03643 0.181357
550.068 7.02339 0.18415
537.512 6.94168 0.187902
522.37 7.1635 0.198095
520.103 7.30944 0.206791
491.536 7.21182 0.20914
477.359 7.13054 0.213587
461.965 7.10741 0.217543
450.419 6.89524 0.215388
441.629 6.96312 0.223038
445.692 7.34454 0.242563
417.314 7.33357 0.247997
421.947 7.2516 0.250627
402.645 7.10125 0.249117
397.124 7.15379 0.258681
381.808 6.90307 0.25418
375.322 7.07761 0.265672
364.029 7.13523 0.273332
360.369 7.15321 0.283814
348.267 6.97319 0.280249
344.326 7.06289 0.290063
339.356 7.12491 0.302705
326.718 7.00798 0.300014
332.369 7.42882 0.323398
314.026 7.08089 0.316938
310.352 7.12116 0.321821
302.115 6.99433 0.324691
297.037 7.13345 0.338964
285.449 6.8028 0.328788
295.539 7.32045 0.359197
278.638 7.13311 0.355561
278.218 7.07023 0.364984
269.255 7.00131 0.363668
259.932 7.05 0.376882
256.99 6.93106 0.374376
252.094 7.03815 0.386886
248.148 7.16943 0.402533
247.677 7.36728 0.418154
239.668 7.03557 0.408395
240.542 7.10851 0.423819
238.507 7.12406 0.429167
239.202 7.17144 0.442819
221.434 7.0259 0.43764
222.431 7.16371 0.456648
217.511 7.18371 0.462255
208.562 6.87472 0.448004
205.513 7.02836 0.468973
211.653 7.17324 0.491166
208.24 7.08176 0.486474
204.571 7.30028 0.516601
200.4 7.3194 0.523162
192.287 6.8796 0.499384
190.076 7.23491 0.529797
190.495 7.32709 0.547174
184.749 6.96449 0.526564
184.746 7.05603 0.54566
179.391 6.85214 0.534215
177.372 7.26411 0.580243
169.027 7.06413 0.572668
173.71 7.35598 0.606817
166.363 7.14549 0.589009
166.389 7.11306 0.601163
159.482 6.88059 0.585798
159.808 7.12284 0.621794
158.707 7.14783 0.629836
158.082 7.02782 0.628134
157.898 7.29627 0.6608
148.481 6.9361 0.636798
148.878 6.9122 0.645171
143.601 7.02846 0.666703
141.762 7.06505 0.674181
142.111 6.96345 0.682522
135.193 6.69313 0.662903
137.302 7.03622 0.705281
137.348 7.22386 0.733738
139.992 7.05865 0.725763
131.402 6.89144 0.71623
133.816 7.29514 0.766052
133.406 7.42564 0.792189
126.468 7.06573 0.765144
128.88 7.52724 0.827859
130.688 7.78451 0.862784
122.218 7.07746 0.803901
123.56 7.15582 0.813239
121.859 7.19512 0.829388
120.924 7.23932 0.84056
121.674 7.4107 0.883131
117.49 7.39022 0.888451
117.984 7.48381 0.914206
118.948 7.25952 0.889547
112.314 7.25931 0.911048
113.947 7.30033 0.92163
108.483 7.04873 0.902521
109.289 7.0784 0.907295
103.686 7.06157 0.923252
106.082 7.09837 0.944938
103.953 7.16156 0.959141
105.397 7.27157 0.9791
99.9434 7.31335 0.997903
101.615 7.09989 0.986762
100.181 7.21361 1.01109
95.1781 6.97476 0.992137
96.583 7.28182 1.0449
97.824 7.30829 1.05078
98.5778 7.39129 1.07581
95.0562 7.23933 1.06342
93.3472 6.97574 1.04532
91.3597 7.24454 1.09935
92.981 7.35585 1.13307
90.4172 6.94925 1.07749
90.8068 7.25559 1.13678
88.7642 7.44086 1.17636
87.3674 7.21901 1.1522
89.2356 7.50201 1.21354
83.4586 6.85073 1.12017
86.8051 7.39666 1.21319
84.8971 7.27863 1.21404
84.4856 7.25818 1.22316
80.2644 6.7928 1.15644
82.7788 7.12332 1.22161
81.1633 7.15152 1.24668
79.122 6.99635 1.22327
80.3144 7.29612 1.2918
78.7919 7.6192 1.3708
75.6483 6.87247 1.24301
79.4178 7.55192 1.37961
75.1753 7.23991 1.3434
75.1155 7.02729 1.30203
74.018 7.18365 1.35952
72.4467 7.28414 1.38496
74.0564 7.17577 1.37828
71.2691 6.95222 1.34342
73.1978 7.18706 1.41599
72.6708 7.53592 1.50109
71.1005 7.16262 1.41941
71.8187 7.41054 1.4846
69.8308 7.4359 1.49452
68.4255 7.25455 1.50593
65.7408 7.1052 1.48064
65.8365 7.15861 1.49941
66.1449 6.98797 1.48168
63.4855 6.91137 1.4724
66.0694 7.47154 1.60613
64.8821 7.30407 1.58787
64.0089 7.20536 1.5686
64.7578 7.3258 1.62567
63.1938 7.15848 1.59308
63.0854 7.27759 1.63825
61.3232 7.09972 1.61219
61.7092 7.24393 1.65597
61.0895 7.16236 1.64177
61.3243 7.48268 1.75562
59.8546 7.08982 1.65638
59.4566 7.49214 1.78425
58.8522 7.48023 1.79004
57.5786 7.34577 1.76497
56.6074 7.17888 1.76311
58.9534 7.51738 1.84602
56.8936 7.21602 1.76256
54.8556 7.42668 1.85102
56.2109 7.13198 1.79604
54.7226 7.18988 1.82453
55.8651 7.30664 1.87029
55.1931 7.28737 1.88215
52.2958 7.11578 1.84221
53.4342 7.17169 1.88738
52.7213 7.13483 1.88228
52.2409 7.12705 1.90325
50.5391 7.0731 1.90813
51.3722 6.94834 1.88191
52.7732 7.60429 2.09095
52.7719 7.41419 2.03247
51.0911 7.13405 1.98258
50.8291 7.40408 2.07612
48.8783 7.11097 2.01451
48.2472 6.98153 1.9824
48.7895 7.39387 2.12678
49.7706 7.30743 2.09712
48.1942 7.17522 2.09886
47.9354 7.18004 2.11852
48.3597 7.41154 2.16452
45.8386 7.03787 2.11247
46.991 7.4181 2.23397
47.0594 7.44129 2.22764
45.2163 7.05768 2.15601
45.1628 7.55122 2.34178
45.5128 7.32357 2.27479
46.2615 7.45367 2.3172
44.8792 7.32472 2.3082
44.9394 7.56928 2.38316
42.5968 7.14597 2.28958
43.006 7.28019 2.34053
43.8533 7.28676 2.36665
43.2224 7.05035 2.27902
42.9733 7.27555 2.40253
42.9656 7.36751 2.4311
42.7311 7.3647 2.43729
41.4246 7.03189 2.37017
42.455 7.46928 2.50622
39.9424 7.07037 2.42592
41.1158 7.12975 2.42358
40.5641 7.32718 2.57364
40.8769 7.12147 2.45172
39.4653 7.10719 2.4852
40.1079 7.2949 2.59729
39.3809 7.26628 2.57898
39.3488 7.26652 2.5981
39.8983 7.34356 2.63887
38.5503 6.93189 2.49643
39.0135 7.44977 2.72511
38.3062 7.18294 2.61938
38.5097 7.6921 2.83066
37.3322 7.10911 2.66352
38.6858 7.61745 2.89461
37.5273 7.39576 2.74719
37.2224 7.56128 2.89655
36.6009 7.27344 2.76304
37.2234 7.48461 2.89636
36.6553 7.49107 2.89964
36.09 7.42606 2.91404
35.9017 7.45811 2.94265
35.1055 7.43612 2.95829
35.4649 7.3345 2.95952
36.0713 7.56694 3.02099
35.092 7.28512 2.92009
34.1888 7.38977 3.04208
34.6133 7.65969 3.13708
34.3832 7.3223 2.99023
34.477 7.48326 3.10879
32.9073 7.15564 2.96922
33.7536 7.46385 3.13485
33.2872 7.60147 3.20284
33.4265 7.44266 3.14944
33.3108 7.50042 3.18829
32.4819 7.43055 3.21434
32.4026 7.42603 3.22827
31.8237 7.38471 3.20194
31.6438 6.94165 3.05777
31.3245 7.03876 3.10572
31.9362 7.29001 3.20554
31.5589 7.33885 3.25398
30.9371 7.51192 3.42219
31.1654 7.41467 3.3494
31.9499 7.47135 3.35767
31.003 7.52773 3.48722
30.1506 7.29979 3.37526
29.2225 6.9571 3.26029
30.0576 7.5229 3.49738
30.7157 7.51953 3.52193
30.7004 7.38439 3.4716
30.6548 7.61815 3.57801
28.9471 7.22491 3.45105
29.6223 7.54734 3.63526
28.6411 7.28384 3.53268
29.8312 7.61428 3.72074
29.183 7.56328 3.70707
28.3824 7.38508 3.64705
29.1105 7.65735 3.80152
28.8737 7.3632 3.65795
28.5247 7.39682 3.68388
28.915 7.56918 3.81279
27.6689 7.14354 3.61971
28.6971 7.54982 3.84041
28.496 7.85632 4.00117
26.6912 7.36337 3.82124
27.2876 7.48655 3.86584
27.3717 7.47426 3.85934
27.2462 7.59741 3.98377
27.1069 7.33405 3.87602
26.4085 7.31879 3.91804
26.112 7.35752 3.86032
26.6964 7.35983 3.93322
26.8972 7.62464 4.10406
26.2001 7.55076 4.04001
26.287 7.53902 4.12967
25.7912 7.19088 3.91564
25.8665 7.40903 4.10437
25.9104 7.37675 4.04528
25.3982 7.58692 4.23585
25.1831 7.52497 4.22442
24.9639 7.41854 4.13784
25.8042 7.41331 4.18347
25.7726 7.93672 4.46855
24.7136 7.45349 4.27801
25.0183 7.741 4.48622
24.8546 7.62958 4.42011
24.6304 7.46398 4.35478
24.741 7.47218 4.32309
24.3408 7.64488 4.50091
24.3243 7.8552 4.65437
23.7491 7.38937 4.38143
24.3667 7.54854 4.40825
23.9305 7.67903 4.61172
23.6335 7.60239 4.61401
23.5787 7.47487 4.52312
23.5767 7.65846 4.65886
23.2821 7.4787 4.58869
23.0888 7.40776 4.55732
23.2323 7.56984 4.64516
22.3742 7.27622 4.6103
22.6366 7.31498 4.55199
22.1778 7.40405 4.60659
22.8752 7.60704 4.80596
22.1373 7.43116 4.7309
22.6754 7.6677 4.82865
22.0781 7.293 4.65893
22.0747 7.47404 4.85232
22.1078 7.64139 4.94651
21.6977 7.5628 4.96678
21.6197 7.2188 4.64651
21.6042 7.48644 4.90846
21.1944 7.37973 4.86423
21.1001 7.424 4.94704
22.0435 7.70287 5.11745
21.3638 7.52245 5.04608
21.8577 8.21067 5.43315
20.646 7.35315 4.98189
20.8144 7.62751 5.22354
20.9713 7.6766 5.26745
20.5321 7.35301 5.04773
20.6765 7.48374 5.13269
20.3879 7.39284 5.14579
20.3312 7.59486 5.31251
20.0034 7.44605 5.19683
20.3715 7.48335 5.16448
20.5689 7.54782 5.36892
20.7948 7.63761 5.37887
19.9093 7.47381 5.31996
19.8291 7.47226 5.36827
19.1983 7.18191 5.09482
20.1452 7.69846 5.56565
19.4291 7.35305 5.36002
19.5316 7.57964 5.49868
19.4985 7.84601 5.79247
19.3597 7.50558 5.51801
19.3659 7.59253 5.56615
18.3904 7.14741 5.38135
18.9638 7.41179 5.55174
18.6389 7.47 5.6666
20.0059 8.02578 6.01376
19.5521 7.9198 5.92111
19.1401 7.46774 5.69478
18.3248 7.51937 5.713
18.5129 7.47033 5.764
18.6408 7.64769 5.94779
19.403 8.12113 6.28289
18.5111 7.54338 5.88158
18.4223 7.54448 5.90401
18.438 7.51274 5.82009
18.246 7.96735 6.36138
18.5736 7.90556 6.20948
18.229 7.42039 5.84591
18.3166 7.91896 6.29527
18.5815 7.82677 6.23308
17.9349 7.52108 6.05391
17.5969 7.57566 6.23055
18.4952 7.58951 6.07395
17.5124 7.50119 6.11686
17.5822 7.75037 6.26044
17.8576 7.92978 6.42221
17.7525 7.68539 6.37952
17.0128 7.59846 6.36881
17.5437 7.87301 6.61394
17.6306 7.86053 6.57926
17.904 7.79106 6.61697
17.0205 7.32671 6.16103
17.3872 7.70231 6.42548
16.6429 7.58041 6.54218
17.0708 7.73914 6.56992
17.0143 7.72374 6.59254
16.8953 7.67205 6.58209
16.5665 7.7031 6.73748
16.6365 7.71858 6.67487
16.6278 7.74548 6.79753
16.9765 7.79784 6.80294
16.797 7.57811 6.65366
16.7834 7.85143 6.79513
16.1446 7.7894 6.89772
16.5023 8.0494 7.2364
16.2474 7.53941 6.71099
16.1858 7.64598 6.96183
16.6037 7.74031 6.83608
16.1108 7.5563 6.9063
16.2267 7.79366 7.05157
15.7761 7.62313 6.87682
16.1507 7.89482 7.09317
15.7044 7.79928 7.27293
15.5528 7.8736 7.22551
15.5626 7.82505 7.31602
15.4595 7.71957 7.267
15.723 7.75014 7.15865
15.6884 7.82222 7.28808
15.0963 7.31678 7.0189
15.9483 7.81543 7.34187
15.7224 7.96105 7.62735
15.2597 7.80362 7.45562
14.8891 7.81094 7.44047
15.2561 7.81559 7.50081
15.0532 7.78567 7.41069
15.3011 7.80244 7.49307
14.9818 7.82725 7.71336
15.2141 7.84784 7.66246
14.7758 7.60727 7.40572
14.928 7.53956 7.4864
14.7753 7.86991 7.74903
15.0472 7.79345 7.57737
14.5389 7.86183 7.8934
14.7758 7.77834 7.76959
14.0507 7.72643 7.76874
14.1675 7.56177 7.78726
14.7915 7.85579 7.89186
14.8012 7.96632 7.94547
14.8588 8.05007 8.09681
14.3305 7.8284 8.07391
14.1571 7.76525 7.93283
14.4735 7.99175 8.22115
14.1461 7.86497 8.08115
14.6172 8.25779 8.46301
14.1723 7.86689 8.25022
13.605 7.66349 7.96965
14.0285 7.79701 8.23812
14.044 7.81613 8.17238
13.9765 7.83831 8.29904
13.9823 7.86393 8.2798
13.256 7.47931 7.98176
13.6655 7.95103 8.36776
13.3641 7.80251 8.49177
13.6568 7.70519 8.27198
13.5181 7.9357 8.51008
13.3831 7.665 8.27544
13.4932 7.74827 8.32664
12.9491 7.78202 8.61763
13.0929 7.84536 8.50197
13.5396 8.05214 8.71299
12.8659 7.82701 8.70421
13.1172 7.96603 8.73848
13.2419 7.9538 8.82624
13.1355 8.00758 8.97154
13.1847 7.98599 8.84293
13.0375 7.85015 8.8182
13.1114 7.74677 8.90555
13.1197 7.98906 8.97727
13.2357 7.8432 8.79286
12.8347 7.77061 8.83102
12.5328 7.74315 8.95268
13.2759 8.42072 9.47314
12.769 7.83997 9.05887
12.9204 7.90298 9.04362
12.525 8.06255 9.40662
12.8738 8.07688 9.39573
12.6439 7.86583 8.98835
12.2825 7.74077 9.20112
13.1351 8.28695 9.51935
12.7152 8.30417 9.68949
12.3255 7.86138 9.36981
12.1238 7.69111 9.13115
12.0243 7.96553 9.47803
12.2015 7.72959 9.1387
11.9036 7.59172 9.06902
12.0977 7.71883 9.33817
12.0806 7.84931 9.37643
12.2357 7.98499 9.67978
12.2056 8.07707 9.88585
12.0319 7.80316 9.34091
11.7243 7.69902 9.6078
11.8931 7.7744 9.4423
11.9203 8.25863 10.222
12.0049 7.98313 9.79247
12.0943 8.12283 10.0777
12.1444 7.96228 9.71369
12.0757 8.06173 9.99
11.573 7.82951 9.9055
12.1426 8.30369 10.3467
11.5664 7.87665 9.8621
11.6025 8.01393 10.1118
11.5124 7.99225 10.2192
11.9385 8.24682 10.2763
11.5795 8.05832 10.1201
11.397 7.78171 10.0408
11.7854 8.27366 10.6313
11.1044 7.9655 10.3573
11.4357 8.20959 10.6738
11.7997 8.15564 10.3074
11.5439 7.97033 10.4509
11.3842 8.01572 10.6037
11.4688 8.23501 10.6653
11.6488 8.41888 10.8756
11.398 8.27935 11.0058
11.515 8.24012 10.7577
11.2365 8.00564 10.4708
11.1205 7.99925 10.5557
11.0685 7.80458 10.4685
11.2561 7.94383 10.6229
11.2021 8.15765 10.8123
11.0586 8.15889 10.9181
11.226 8.46496 11.2898
11.0162 8.2215 11.1026
10.9768 8.12089 11.1222
11.2192 8.27856 11.0521
10.958 8.30224 11.2996
11.2242 8.62333 11.7176
10.8227 7.95586 11.0331
11.0968 8.78173 12.115
11.0695 8.39121 11.3764
10.9421 8.2424 11.6412
10.7731 8.43894 11.581
10.6308 8.16615 11.5341
10.6556 8.17457 11.4878
10.8718 8.51657 11.8249
10.6255 8.10186 11.5146
10.5217 8.2219 11.445
10.3256 7.75118 11.347
10.6652 7.84449 11.155
10.7738 8.52967 11.9834
10.5985 8.0794 11.3463
10.3295 8.07311 11.4562
10.5874 8.35343 11.9094
10.2891 8.00743 11.4834
10.5043 8.13961 11.8401
10.2163 8.24281 11.6909
10.3395 8.22141 11.8212
10.2237 8.33277 12.1139
10.0098 8.17738 12.1643
10.173 7.97219 11.7699
10.3086 8.56014 12.4356
10.1519 8.08429 11.8695
10.058 8.06394 11.8153
9.94899 8.13022 12.1663
10.1252 8.09814 11.9308
10.0951 8.24448 12.1906
9.77517 8.14018 12.1089
9.96615 8.12347 12.3259
10.296 8.4381 12.6262
10.0503 8.00671 12.1153
9.80265 8.26091 12.574
9.83885 8.1347 12.0869
9.87662 8.10545 12.2236
9.91166 8.23583 12.6475
9.96294 8.13018 12.3512
9.71788 8.02918 12.2048
9.83624 8.33607 12.6676
9.79121 8.12113 12.4985
9.66593 8.19754 12.908
9.98655 8.48158 13.0088
9.59417 8.07638 12.6584
9.8917 8.48396 13.0043
9.8751 8.41715 13.2525
9.6646 8.07065 12.62
9.62819 8.29283 13.0167
9.72002 8.29425 12.9259
9.64258 8.29991 13.0244
9.13654 7.97637 12.6564
9.64465 8.29664 13.2017
9.29917 8.1205 12.789
9.3408 8.30165 12.999
9.35436 8.33803 13.6736
9.3114 8.37364 13.2399
9.11369 8.07835 13.2158
9.3494 8.29687 13.3644
9.23879 8.32315 13.5893
9.23054 8.36986 13.5281
9.4369 8.52129 13.7874
9.15686 8.43149 13.7956
8.99613 8.27551 13.4401
9.082 8.18014 13.2302
9.11971 8.01794 13.1991
9.12086 8.24801 13.4967
9.01748 8.27102 13.9387
9.06377 8.02426 13.1243
9.0991 8.17221 13.4522
8.86627 8.12441 13.6159
8.94466 8.0323 13.3061
8.97514 8.16612 13.7768
8.83715 8.48398 14.2517
9.08038 8.44612 14.1459
8.78262 8.42365 14.1535
8.99687 8.49742 14.4423
8.86244 8.20163 13.8882
8.86978 8.23325 13.9426
8.8803 8.29967 14.0348
9.04103 8.49302 14.6654
8.75261 8.32406 14.0791
8.84036 8.45257 14.3458
8.70503 8.32931 14.2604
8.45391 8.19031 14.5149
8.71439 8.35565 14.2003
8.60463 8.33955 14.2259
8.48794 8.08204 14.3316
8.6755 8.53612 14.7375
8.50555 8.37574 14.7266
8.84512 8.7301 15.3192
8.67183 8.57095 15.0917
8.77494 8.39412 14.6786
8.50196 8.61315 15.2629
8.82422 8.74232 14.9003
8.24918 8.2795 14.9259
8.32498 8.25973 14.9845
8.59815 8.66843 15.145
8.40879 8.183 14.5959
8.56831 8.39927 14.9661
8.42672 8.29896 14.8886
8.46394 8.48284 15.4357
8.48994 8.23799 14.4884
8.2679 8.44891 15.3583
8.25472 8.15191 14.645
8.26704 8.34603 15.1456
8.24115 7.93841 14.4619
8.3921 8.69689 15.5997
8.28166 8.41506 15.2849
8.28706 8.40891 15.6575
8.24809 8.32345 15.3457
8.37629 8.89829 16.3128
8.2949 8.74396 16.1394
8.07357 8.46987 15.5866
8.08066 8.44777 15.7451
8.4014 8.6711 15.8735
8.2379 8.44725 15.9786
8.15831 8.41319 15.6519
7.81813 8.20968 15.3955
8.09505 8.53584 16.1953
8.19933 8.50262 15.636
7.85164 8.11054 15.7929
8.08005 8.50494 16.1252
8.14005 8.53126 15.7174
8.00548 8.4471 16.334
8.21242 8.70236 16.6838
7.9844 8.62177 16.0332
7.99752 8.45305 16.2711
8.05048 7.97813 15.4584
8.06234 8.54254 16.487
7.96981 8.52558 16.2611
7.99848 8.55763 16.3567
8.04155 8.51406 16.3476
7.83111 8.36283 15.9141
7.86614 8.17325 15.9941
7.36738 8.11333 15.9229
7.9279 8.73248 17.0929
7.80482 8.60529 16.7273
7.73997 8.63525 17.3263
8.09183 8.92751 17.3251
7.99024 8.70564 17.0432
7.94177 8.84979 17.5223
7.83877 8.57989 17.1056
7.69185 8.46606 16.6328
7.82883 8.42006 16.5716
7.66951 8.77834 17.3339
7.77212 8.54864 17.3177
7.70154 8.41265 16.2954
7.53626 8.55167 17.1922
7.54662 8.53034 17.1882
7.66385 8.55846 17.2489
7.5346 8.4973 17.3533
7.63702 9.06824 18.0089
7.78548 8.6609 17.6079
7.73883 8.83606 17.6597
7.6396 8.5098 17.5998
7.84699 8.93876 17.7789
7.51226 8.34666 17.1104
7.5398 8.65932 17.5619
7.49536 8.85041 18.1334
7.54804 8.73264 17.5672
7.48577 8.69155 17.6176
7.21414 8.39181 17.6712
7.22508 8.62147 17.6954
7.28639 8.16976 17.3786
7.4225 8.58135 17.914
7.50994 9.16427 18.356
7.39731 8.71423 18.6874
7.31921 8.32379 17.4441
7.32646 9.04418 18.8311
7.44752 8.61484 18.0673
7.28279 8.59774 18.0066
7.42177 8.68786 17.998
7.03929 8.6513 18.663
7.48468 8.79779 18.5366
7.42596 8.57477 17.8198
7.09043 8.34715 18.0424
7.16308 8.6498 18.548
7.16525 8.79214 18.5141
7.31278 8.79434 18.8628
7.34946 8.59698 18.6194
6.87336 8.3433 18.2645
7.41474 8.78249 18.3957
7.00024 8.72644 18.9085
7.33498 9.04523 19.7016
7.03748 8.54902 18.3301
7.33767 9.13439 19.9515
7.17443 8.44744 18.3912
7.15014 9.06463 19.7438
7.20162 8.66046 18.7388
7.08464 8.65147 19.0626
7.02244 8.62698 18.5677
7.15348 8.55261 18.98
6.99094 8.61351 19.1355
7.25489 8.6385 19.0599
7.13562 8.76956 19.1733
6.96555 8.59739 19.2113
7.09501 8.75567 19.8629
7.31606 9.27873 20.4181
7.2881 8.86876 19.2361
6.77883 8.66386 19.503
6.91849 8.8697 19.6365
6.85083 8.77798 19.8267
6.80577 8.7272 19.8913
6.98822 8.76841 19.8189
6.92742 8.96897 19.8207
7.05864 9.2281 20.3794
6.74524 8.63868 19.4551
6.95759 8.85042 20.3652
6.82916 8.59269 19.3733
6.76819 8.59726 19.7362
6.9044 8.76115 19.8508
6.84762 8.78559 19.6496
6.88143 9.00558 20.7588
6.90026 8.81149 20.0362
6.68656 8.68344 20.0071
6.90766 8.80526 20.1562
6.79001 8.77712 20.032
6.86175 8.76062 20.1688
6.65554 8.98529 20.5246
6.71265 8.75497 20.1389
6.84594 8.55013 19.821
6.65637 8.6272 20.3574
6.91421 8.94075 20.5123
6.86432 9.16853 20.9009
6.45087 9.01176 21.3784
6.81302 9.05875 20.9434
6.63745 8.79614 21.015
6.68612 8.56074 19.8502
6.56064 8.71506 20.8773
6.56901 8.9516 21.0595
6.63955 8.95063 21.2987
6.69731 8.90786 20.5511
6.60045 8.62802 20.396
6.35015 8.7286 21.2247
6.58143 8.8056 21.0602
6.63245 8.94227 21.4001
6.43203 8.99905 20.8185
6.3685 8.88581 21.7299
6.52686 8.70671 21.2248
6.75409 9.19887 21.8675
6.33439 8.77492 20.9628
6.62805 9.35012 22.6825
6.5014 8.88903 21.2792
6.59873 8.81622 21.1782
6.43119 9.19239 21.8086
6.68125 8.89373 21.6848
6.58429 8.89512 20.942
6.09876 8.73147 22.0816
6.77509 9.27421 22.3297
6.4129 8.84161 21.8049
6.3119 8.99865 22.1425
6.48769 9.02771 22.0107
6.39061 9.2171 22.7482
6.48955 9.26038 22.9189
6.60339 8.96902 22.2497
6.36166 8.91904 21.7361
6.17765 8.715 21.3265
6.36467 8.96414 22.3904
6.26536 8.7534 21.5244
6.2161 8.71992 21.6071
6.23807 8.69931 22.3562
6.23434 9.04131 22.3686
6.40392 8.91432 22.2563
6.34061 9.00379 22.7071
6.5608 9.18606 22.6789
6.21743 9.29686 23.9441
6.59113 9.21828 22.7088
6.26521 9.07407 22.8275
6.05227 8.99078 22.7253
6.1811 8.51757 21.6913
6.054 9.04178 22.7949
6.10759 8.99414 23.0245
6.36942 9.1769 22.5573
6.2114 9.22562 24.114
6.40342 9.30824 23.6823
6.219 9.26262 23.9816
6.26149 9.12575 23.1265
6.28495 8.73919 22.8362
6.34632 9.49372 23.8563
5.99266 8.98494 23.366
6.33533 9.54533 24.2733
6.08292 9.06552 23.3175
6.18957 9.03516 23.6828
6.13399 9.16428 23.6965
6.30174 9.68033 24.9591
6.47761 9.55266 24.2577
6.26286 9.12128 23.8138
6.19643 9.26976 24.2168
6.11344 9.32762 24.636
6.29862 9.74255 24.7748
6.12907 9.73042 25.1873
6.10636 9.15916 25.0641
6.42025 9.73712 25.1803
6.20763 9.82059 25.7874
6.42002 9.66467 24.8162
6.04409 9.64771 25.4692
6.17927 9.75749 25.9267
5.96078 9.26962 24.4366
6.0988 9.64884 25.4806
5.96381 9.56723 26.2048
6.35691 9.64427 25.8083
6.01056 9.39867 24.8938
6.1115 9.55839 24.923
6.09767 9.45552 25.1359
5.96612 9.52408 25.283
5.98935 9.08669 24.5807
6.05867 9.27295 24.6393
5.93154 9.46597 25.3101
5.97282 9.30455 24.9976
5.8588 9.24388 25.0277
5.95273 9.15923 24.7689
5.84333 9.17101 24.5503
5.90294 9.03937 25.1024
5.85036 9.47505 25.4087
5.86757 8.85224 23.8621
5.78887 9.13358 25.3359
5.92813 9.21442 24.9239
5.92807 9.18139 24.9265
5.82737 8.81755 23.3625
5.56748 8.85517 25.0841
5.80617 9.38517 25.5293
5.86971 9.51172 26.0298
5.86695 9.49681 25.8497
5.8476 9.1805 24.9811
5.79493 9.04253 25.479
5.83531 9.39254 25.9998
5.77301 9.25526 26.1001
5.82208 9.6848 26.8371
6.06558 9.67277 25.3369
5.64515 9.26799 26.3603
5.92486 9.40341 25.8761
5.81937 9.27012 25.3485
5.64989 9.34185 25.8637
5.7523 8.99326 25.0702
5.73624 9.14063 26.3176
5.57239 9.13226 25.7885
5.83054 9.42326 26.1682
5.75439 9.4184 26.6548
5.77146 9.27991 25.7112
5.63529 9.26711 26.142
5.67464 9.19859 25.8997
5.50863 8.99728 25.6653
5.84458 9.55391 26.9449
5.78898 9.18603 25.9593
5.7119 8.97135 25.3491
5.60356 9.36939 26.5174
5.5203 9.18508 25.6646
5.63573 9.11713 26.3958
5.75504 9.60923 26.8239
5.51628 9.0449 25.898
5.68349 9.37819 26.694
5.66434 9.05391 25.8583
5.67046 9.4742 27.6819
5.52225 9.17902 26.3029
5.54746 9.53152 27.1802
5.44051 9.32343 26.9273
5.60379 9.27446 27.4088
5.62411 9.33702 26.6957
5.66569 9.63567 27.8545
5.47897 9.3859 27.1327
5.58334 9.41786 26.8895
5.52254 9.40702 27.0875
5.60305 9.46639 27.81
5.58994 9.34759 27.1271
5.54609 9.37164 27.3314
5.50123 9.40242 27.1343
5.424 9.30834 27.0816
5.48714 9.35247 27.5623
5.38958 9.37723 28.521
5.6377 9.50225 26.7238
5.45567 9.11152 27.1492
5.42745 9.57686 28.192
5.45447 9.52814 27.9187
5.41203 9.28264 27.5383
5.44369 9.34965 27.5469
5.47079 9.4282 28.014
5.53341 9.31255 27.4103
5.42217 9.32583 27.2683
5.31217 9.33208 27.367
5.25496 9.15165 27.5785
5.30595 9.19775 27.7464
5.4565 9.16276 27.4984
5.28563 9.234 27.2163
5.28499 9.15405 27.27
5.40084 9.74255 28.8416
5.42815 9.37956 28.1663
5.44285 9.38674 28.3102
5.31371 9.36279 27.3844
5.21609 9.0891 28.2159
5.28667 9.58762 28.5744
5.35578 9.21784 28.2425
5.37766 9.64253 29.2661
5.4792 9.3707 27.7558
5.24343 9.16 27.9224
5.37808 9.08624 26.8477
5.15713 9.4707 29.1093
5.50372 9.94751 29.528
5.44815 9.40364 29.0113
5.17367 9.31306 28.7841
5.31589 9.56985 29.21
5.27101 9.42111 29.2109
5.33295 9.58959 28.7615
5.197 9.67357 30.0158
5.49474 9.64816 29.7279
5.49604 9.85943 29.2714
5.19369 9.79946 30.0993
5.35013 9.62229 29.9422
5.4403 9.54556 28.6857
5.19184 9.37736 28.5469
5.18739 9.34516 28.8039
5.20515 9.39897 29.2942
5.33732 9.37186 28.9826
5.37051 9.39211 30.1077
5.49613 9.4946 28.1779
5.12628 9.3235 29.4223
5.32719 9.5719 29.5249
5.20266 9.60409 29.6828
5.14346 9.28346 29.7365
5.2137 9.53106 29.3091
5.07436 9.52597 29.0754
5.10551 9.48199 30.2761
5.10029 9.44671 29.3454
4.99937 9.15337 29.2247
5.33139 9.70129 30.8562
5.27612 9.43082 29.4824
5.19514 9.35953 29.6095
5.34212 9.94239 31.1396
5.0907 9.67241 30.5364
5.28442 9.23283 28.3701
5.14233 9.35845 29.5037
5.13549 9.34708 29.4994
5.07637 9.35057 29.7998
5.13076 9.53847 30.0432
5.10749 9.66991 30.6874
5.07292 9.45343 30.767
5.25301 9.38917 29.716
5.14414 9.65166 29.9187
5.06603 9.79336 30.6427
5.10543 9.55381 32.2638
5.33259 9.55678 29.1584
4.99813 9.58683 30.68
5.01884 9.63808 30.7977
5.23357 9.9322 30.9246
4.989 9.54953 31.1279
5.08609 9.36939 30.522
5.07294 9.40222 30.8212
5.23398 9.76711 31.2221
5.11011 9.75417 31.1636
5.00729 9.46801 30.5866
5.23073 9.81726 31.0705
4.9867 9.35269 30.9048
5.23885 9.81847 31.5121
5.08174 9.8638 31.9403
5.1479 9.57846 30.8816
5.1041 9.81748 30.8902
5.05967 9.47335 30.8818
5.03216 9.53651 31.8399
5.07093 9.63866 30.9132
5.0467 9.67905 31.6917
5.02561 9.29691 30.9847
4.97206 9.69592 31.1421
5.05506 9.47065 30.6401
4.87279 9.50204 32.1874
4.98676 9.49942 30.751
5.04867 9.40636 30.3846
4.85251 9.38456 31.1997
4.9268 9.56731 30.9595
4.8965 9.66553 32.4458
5.03383 9.41625 31.1762
4.93782 9.31845 29.7339
4.85083 9.56434 30.8057
4.78481 9.44911 31.1814
4.84548 9.83618 32.5332
4.99043 9.83137 32.4271
5.01037 9.72292 31.5005
4.98378 9.77735 32.2886
4.86324 9.63776 32.9351
5.04135 9.85407 32.9538
5.08643 9.89791 32.6388
5.07386 9.78108 31.1184
4.84103 9.59381 32.2838
4.89156 9.24045 30.9704
4.90097 9.77997 33.2705
4.99995 9.75507 32.0435
4.85162 9.84813 33.6634
5.01603 9.87893 33.2089
4.94419 9.79866 31.8873
4.7299 9.29295 30.976
4.70888 9.54291 32.1222
4.83296 9.79735 33.1605
4.94069 9.7559 33.2728
4.92341 9.72924 30.9996
4.74538 9.59242 33.0102
4.77714 9.66218 31.8354
4.83562 9.56172 33.1032
4.91602 9.90442 33.939
5.12602 9.80687 33.0859
5.04311 9.85687 32.6068
4.97077 9.74835 33.7158
4.86979 10.1024 33.5263
4.82784 9.46707 32.9195
4.85044 9.49096 31.1663
4.62691 9.45017 32.943
4.83616 9.77817 33.4272
4.81423 9.64613 32.7224
4.7214 9.8388 33.5375
4.84801 9.68681 33.6285
4.90536 9.94605 32.8715
4.61356 9.57522 33.2087
4.86846 9.8277 33.4044
4.80015 9.67705 33.1333
4.84483 9.91171 34.8539
4.98266 9.79779 32.5437
4.6661 9.31523 33.0313
4.96106 9.69138 32.9708
4.71337 9.85688 33.9421
5.01597 9.8684 34.2177
4.94322 9.74413 33.9402
4.80456 9.92236 33.1658
4.63058 9.41353 33.101
4.79742 9.69455 33.7171
4.75213 9.66385 32.7909
4.72074 9.88729 34.3617
4.90675 9.79819 32.8616
4.7974 9.77952 34.6773
4.7547 9.45574 32.8929
4.73046 9.70401 33.2867
4.74692 9.46017 33.7766
4.80872 9.73094 32.5357
4.60338 9.57499 33.9291
4.71026 10.0411 35.4597
4.91845 9.94816 34.5311
4.74296 10.1758 34.9893
4.74812 9.74641 34.4329
4.761 10.0829 34.9204
4.78151 9.81482 34.8807
4.70743 10.2132 34.2448
4.64593 9.79895 34.7517
4.6335 9.60269 34.0986
4.77105 9.53178 35.0707
4.95018 9.91268 33.5697
4.71035 9.86455 34.2861
4.7378 9.93833 34.7331
4.77637 9.7003 34.5978
4.61924 9.54624 34.6837
4.69737 9.96311 34.718
4.81292 9.72507 34.6645
4.74272 9.80911 34.6556
4.62893 10.0136 34.3856
4.63562 9.51747 33.2089
4.47913 9.6786 33.7898
4.47794 9.5036 34.1384
4.65718 9.82266 35.9344
4.69613 9.96925 35.2558
4.60556 10.0412 34.9475
4.6039 9.99584 35.7861
4.7371 9.92427 34.8209
4.59254 9.84095 35.5464
4.66824 9.79172 34.8826
4.6712 9.60743 33.9522
4.57559 9.92468 34.7574
4.51052 9.53683 35.6494
4.74398 9.91933 35.0304
4.62937 9.84063 34.8809
4.65694 10.1893 37.3284
4.77138 10.3392 35.9527
4.66605 10.3547 36.8673
4.74921 10.1372 36.2747
4.77134 9.79206 35.886
4.81601 10.1844 37.4185
4.67686 10.084 35.0221
4.62684 9.82304 36.366
4.75851 10.2194 36.4537
4.77852 10.0381 36.8364
4.78915 10.6023 37.1371
4.62459 10.2423 36.8279
4.74524 10.3006 38.0457
4.84325 10.9958 38.2989
4.75244 10.2359 36.8274
4.74748 9.76156 36.7953
4.75106 10.4772 37.9717
4.85377 10.4174 37.2115
4.67686 10.5129 38.1902
4.66247 9.92512 37.4125
4.80706 10.3229 36.7607
4.64536 10.2625 37.7232
4.66746 10.4199 37.7346
4.63698 10.166 37.1018
4.81682 10.5464 37.3223
4.59285 10.069 35.8898
4.52821 9.82179 37.2851
4.71694 9.9826 36.0148
4.65469 9.80046 35.064
4.55604 9.90783 36.1475
4.55715 9.61934 34.8677
4.65232 10.2173 36.8134
4.38789 9.76587 37.654
4.62812 10.195 37.0794
4.60531 10.0545 37.1623
4.5995 10.009 36.7143
4.5841 10.1181 37.1673
4.64693 10.2419 37.0643
4.63085 9.9878 36.8426
4.53138 9.7034 35.7848
4.58888 9.837 35.4801
4.32355 9.82071 36.2183
4.5106 9.98594 36.7972
4.49422 9.54703 35.5729
4.56534 10.0833 36.8378
4.42605 9.76126 36.2527
4.56148 10.0308 37.4398
4.56227 9.81112 35.5014
4.39729 10.0621 37.0494
4.47862 10.1612 37.0423
4.42599 9.75545 36.3353
4.48036 9.66678 36.539
4.57987 9.9271 37.9302
4.62528 10.3374 37.8528
4.61364 10.1993 38.0763
4.65928 9.77154 36.4932
4.4989 10.5925 38.1776
4.52132 10.0932 36.9908
4.58758 10.0231 37.1572
4.56228 9.87909 36.081
4.49354 9.68663 36.3021
4.49566 9.99377 37.5412
4.50833 9.46719 35.0408
4.32208 9.95247 37.4891
4.53242 9.73743 36.0116
4.35404 10.0565 38.1898
4.5585 9.9157 36.6759
4.48177 9.59848 35.3919
4.37544 9.80995 37.2728
4.5376 9.86632 36.0797
4.39422 9.73953 37.1674
4.40585 10.0872 37.7384
4.48956 9.9355 37.1666
4.44244 9.86281 36.9219
4.41008 10.0133 37.5449
4.49949 10.1723 38.3762
4.55401 9.80389 36.7446
4.43983 9.94046 36.1465
4.3147 10.0032 37.9564
4.43514 10.1053 36.879
4.30014 9.95411 37.9814
4.46354 9.89942 38.1486
4.60234 10.0382 36.9437
4.43446 9.74431 38.5506
4.53832 10.0144 37.5621
4.57118 10.1733 39.0008
4.5949 10.1587 36.6358
4.38724 9.96849 38.283
4.42686 9.77166 37.4735
4.58909 9.87491 37.1955
4.40005 9.65588 37.1678
4.44394 9.96827 37.0791
4.2996 9.80701 37.5063
4.35684 9.72239 36.9233
4.32989 9.86198 37.8087
4.48141 9.96985 37.2272
4.43566 9.92736 36.9536
4.19392 9.6907 37.8884
4.44326 9.88897 37.409
4.39024 9.88964 38.0704
4.42177 10.1049 38.2247
4.49813 9.87951 36.6934
4.38088 10.1887 39.4901
4.5735 9.89104 38.2524
4.35804 9.94046 38.0617
4.33352 9.998 38.4742
4.56002 10.1887 38.2285
4.36502 9.97669 38.075
4.41096 10.1549 38.5029
4.3532 9.75039 36.7181
4.34265 9.61896 37.0896
4.34727 10.1978 38.5728
4.36111 9.75771 39.0031
4.61571 10.1919 38.7414
4.43413 9.94547 38.5648
4.2756 10.069 37.1798
4.25593 9.5836 37.4256
4.37009 9.85937 38.3405
4.41273 10.0218 37.3788
4.23174 9.48339 37.5718
4.27659 9.98871 37.5469
4.31466 9.63644 38.1979
4.33671 10.0268 38.8587
4.49971 10.2272 37.7603
4.3388 9.70766 38.535
4.35913 10.1345 37.8623
4.25287 10.2366 39.0076
4.37526 10.4784 39.7299
4.4216 10.0484 39.8733
4.59766 9.95158 38.7896
4.34205 10.2561 39.1062
4.34809 9.76985 38.3337
4.309 9.62393 37.4131
4.35963 10.1187 38.4391
4.23062 9.77452 38.3347
4.2864 9.70336 38.0912
4.40565 10.1668 38.7686
4.38914 10.1346 36.738
4.14687 9.47968 37.963
4.3472 9.80422 38.5402
4.31905 9.98595 39.3317
4.35146 9.77699 37.6086
4.13845 9.87986 38.1532
4.18608 9.92374 38.6228
4.3897 10.0496 38.0228
4.22858 10.1664 40.0068
4.40145 9.81157 38.7523
4.48076 9.58453 38.7603
4.33713 10.0785 37.958
4.29725 10.0763 39.5298
4.31489 9.99169 38.1298
4.36231 10.2645 39.6124
4.38792 10.1834 38.616
4.31756 9.87186 39.8197
4.33502 9.83469 37.7773
4.25165 10.3001 40.8293
4.4712 10.0517 39.021
4.28893 10.0677 38.5266
4.25703 10.277 38.7091
4.18782 9.42639 38.7639
4.14076 9.88209 39.2687
4.27783 10.3885 39.406
4.32879 10.0709 40.2276
4.2958 10.1438 39.2551
4.2974 10.3145 38.8391
4.23045 9.80023 39.8393
4.30873 10.0978 38.4946
4.34105 9.77036 37.6958
4.34742 9.7773 39.9687
4.41429 9.84424 38.0746
4.332 10.0119 39.3066
4.36048 10.4765 40.4444
4.46136 10.0047 39.1208
4.38256 10.1035 39.2055
4.30007 10.0437 39.326
4.25897 10.0394 40.3018
4.30683 10.409 38.659
4.29097 9.79913 39.2879
4.32181 9.83197 39.705
4.19132 10.163 38.0819
4.13579 9.684 39.1985
4.32736 9.97417 39.3848
4.36646 10.1443 39.0973
4.14573 9.91131 37.8815
4.1559 10.0638 40.5478
4.43929 10.2446 40.6939
4.45442 9.87637 38.3493
4.17334 10.377 41.2442
4.43481 10.1171 39.7869
4.33742 10.1086 38.7364
4.08712 9.74262 39.2644
4.29631 9.41215 38.4428
4.27607 10.2141 39.3206
4.2503 10.1408 40.0459
4.25462 10.301 40.2023
4.32881 10.0897 41.0723
4.34606 10.1679 39.0752
4.30866 10.1863 39.4918
4.21544 9.99912 40.0333
4.23041 9.81191 39.0771
4.09042 9.60905 38.2712
4.18526 9.95979 38.3389
4.19234 9.70826 38.7098
4.20098 10.0355 39.657
4.19604 10.129 41.0266
4.39141 9.71629 39.0143
4.27766 9.96487 40.2508
4.34236 10.5706 42.0641
4.36649 10.2187 39.4619
4.17257 10.3555 39.2967
4.04731 10.1138 41.539
4.4473 10.449 40.415
4.34292 10.1816 40.4732
4.23056 9.81364 39.4318
4.14044 10.0291 40.3852
4.20364 9.88126 38.2556
4.1425 10.2437 40.8897
4.31079 9.83755 39.0381
4.28077 10.0715 40.2178
4.24176 10.1439 41.851
4.49362 10.4602 39.267
4.24109 9.80721 39.2881
4.19334 10.0158 39.69
4.28171 10.5361 39.2003
4.18002 9.39921 40.2806
4.30198 10.3053 40.5919
4.3339 10.1501 39.686
4.10258 9.82952 40.3326
4.19494 10.1719 40.1039
4.26951 9.98407 39.0277
4.1761 9.76397 38.6126
4.23821 9.98307 40.7263
4.2473 10.5937 40.6605
4.19908 9.79656 39.2104
4.04419 10.2455 40.6118
4.2401 10.4572 41.301
4.29529 10.2894 41.1481
4.35463 10.2236 40.9441
4.28743 10.0557 40.5476
4.28868 10.1206 38.9166
4.10529 10.042 41.4303
4.20444 10.0246 39.2868
4.22814 9.98126 40.7129
4.36621 10.0736 40.2659
4.21276 10.3942 40.8885
4.26251 10.4323 40.3636
4.14256 10.0238 40.0723
4.12 10.2072 39.8336
4.25439 10.0076 38.3037
4.20782 9.63536 40.7071
4.1452 9.96272 39.7072
4.16949 10.3778 40.8022
4.25189 9.99433 39.7629
4.21285 10.0566 41.7218
4.32753 10.0323 39.9162
4.15171 10.0614 39.6006
4.1383 10.0381 40.4957
4.17233 9.97447 39.4231
4.13672 10.2698 40.7426
4.36961 10.3744 40.1671
4.12595 9.85081 39.7371
4.15309 10.3173 39.9213
4.23179 9.8682 40.1591
4.22617 10.1014 39.4493
4.0883 9.8603 40.9312
4.32178 10.3117 39.9725
4.21447 9.93237 39.3246
4.20925 9.70403 40.0677
4.20778 9.91518 38.9539
4.14919 10.101 40.7011
4.15879 10.1815 39.3328
4.20581 9.88733 40.365
4.24947 9.69055 38.6533
3.98457 10.0201 40.8211
4.2189 9.98072 39.7396
4.1884 10.3467 41.1314
4.30656 10.3567 40.7276
4.28471 10.2046 40.8298
4.17391 10.4597 42.5465
4.37609 10.2043 39.3451
4.14161 10.4027 41.7939
4.37817 9.77752 39.9353
4.20977 10.4017 41.6398
4.41806 10.1373 39.4495
4.12314 9.88406 38.6848
4.22497 10.0179 41.792
4.29335 10.4887 40.6105
4.09822 10.1481 41.7758
4.28723 10.298 41.3726
4.24308 10.4367 41.5093
4.28451 10.0966 39.5046
4.2247 10.2848 39.3702
4.15646 9.85337 40.8779
4.26347 10.4389 42.0635
4.32563 10.5903 42.1166
4.35594 10.3609 41.2941
4.21863 10.0419 42.414
4.39043 11.0053 43.1387
4.41541 10.8165 42.9629
4.29268 10.4234 42.7378
4.37336 10.9739 43.9032
4.43108 11.322 46.3505
4.65107 10.9017 40.9071
4.29353 0 0