# pn-170911/RbIIA-40-USN3-1280-1959.psd
# Power spectrum* (dif=0,1,2) (really just |FT|^2)
# NOTE: only the first half! (symmetric)
# weeks: 1280-1959
# 135 clock-days, 38 excluded
# PSD: 1441
25985.9 0.577294 0.0151374
1.80895e+06 35.8237 0.00631749
3.46935e+06 53.8273 0.00684605
840591 27.1242 0.00684267
514958 28.2424 0.0079746
231993 16.7271 0.00759153
193930 21.3826 0.00880288
96929.9 13.6066 0.00955049
88067.5 16.0824 0.00976039
57929.6 12.2693 0.00962235
54172.7 11.2246 0.0103991
38901.9 11.1563 0.0114286
32316.6 9.91178 0.0123135
27972.2 9.72243 0.0140561
21652.9 9.70945 0.015324
23646.4 11.9372 0.0182849
17692.2 9.63835 0.0170643
14873.3 8.97537 0.0187778
13334 8.79684 0.0200395
12155.3 8.12058 0.0201084
12927.3 9.69388 0.0217466
10120.3 9.5424 0.0250766
8787.25 7.67174 0.0236263
7919.58 7.95266 0.0286896
7117.33 8.54445 0.0299362
6856.22 7.7932 0.0301653
5453.96 6.95587 0.0295063
5936.81 8.21285 0.0354407
5009.52 8.12489 0.0373717
5398.99 8.71547 0.0383999
4625.5 8.72239 0.0433703
4617.64 9.41364 0.0499738
3965.44 8.07765 0.0473932
4215.26 8.625 0.0491619
3793.28 8.74631 0.0515268
3869.64 7.56931 0.0511477
2981.33 7.35454 0.0490829
3114.57 7.51168 0.0533837
3133.21 9.76033 0.0714582
2928 7.62103 0.0593658
2732.21 8.17104 0.0679753
2714.08 9.51482 0.0838038
2262.54 7.55423 0.0682617
2492.45 8.76986 0.0842726
2212.34 8.48666 0.0805382
1903.85 6.62654 0.0711312
2075.18 7.88916 0.0846694
1843.77 8.6318 0.0981099
1824.91 7.14629 0.0855376
1667.1 7.51696 0.0938489
1655.42 8.92922 0.113549
1601.85 8.40664 0.113733
1597.88 7.92359 0.107597
1752.58 9.03841 0.127489
1245.5 6.35822 0.0942767
1329.43 8.01483 0.121707
1215.77 7.7457 0.114508
1227.69 7.69945 0.131183
1147.94 6.94698 0.122774
1115.19 7.92174 0.138009
1027.13 8.55175 0.150732
1167.96 8.597 0.149618
1047.53 7.00388 0.129474
1083.22 9.54073 0.185257
1037.06 9.25736 0.184135
848.096 6.88345 0.139762
979.414 7.65552 0.164406
1080.99 8.9819 0.196807
781.449 7.43871 0.173759
951.817 7.58166 0.168684
878.587 7.82516 0.186692
847.797 7.86649 0.200853
889.553 9.26929 0.230732
755.293 7.70043 0.202325
772.531 7.56029 0.196949
756.51 8.36834 0.230942
855.892 9.54082 0.279387
677.508 8.53997 0.252987
593.859 6.70511 0.196107
595.199 5.90982 0.179471
666.333 8.00551 0.242378
673.973 7.46896 0.242226
545.062 7.07066 0.226694
565.817 9.15492 0.299096
594.25 8.01992 0.268575
690.018 9.17749 0.317648
573.024 9.02717 0.31928
510.292 7.06823 0.264699
552.079 6.98765 0.257391
520.436 7.17247 0.273268
485.61 7.22502 0.286822
477.027 7.69671 0.307302
508.162 8.05548 0.329435
488.35 7.80018 0.326536
448.593 7.26748 0.312962
477.888 7.8812 0.351617
405.75 6.98301 0.303855
468.931 7.37677 0.344803
399.31 7.07876 0.332101
437.967 8.32165 0.382695
371.752 7.80111 0.360083
401.525 6.5614 0.322658
404.018 7.6824 0.380617
384.156 7.4571 0.370574
354.991 8.03364 0.419173
387.422 6.87859 0.371533
404.376 8.65866 0.480371
393.708 7.61249 0.413686
340.012 7.08665 0.403272
386.776 8.00132 0.462556
332.751 8.00738 0.455282
311.19 7.46309 0.450419
306.989 6.63043 0.386574
310.971 8.43668 0.523517
288.586 6.81559 0.426231
286.065 7.48548 0.489583
304.642 7.85251 0.508483
313.11 7.67259 0.486597
322.377 8.08955 0.522792
314.626 8.27516 0.550213
267.013 7.52391 0.511582
253.903 8.14663 0.565536
299.064 9.00784 0.653338
272.215 7.07243 0.502141
299.435 7.8518 0.574855
276.121 7.69889 0.571348
290.678 8.7006 0.655662
259.366 8.16532 0.614496
260.005 7.91677 0.633875
227.472 7.18803 0.574996
266.474 7.28481 0.590507
245.022 7.92377 0.649125
225.453 7.3631 0.625261
223.388 6.84215 0.583727
225.311 7.15782 0.611868
206.329 7.50149 0.649141
232.053 7.65638 0.674573
212.817 7.41505 0.673215
201.989 6.98017 0.626306
234.194 7.15448 0.665204
192.106 7.85729 0.716211
218.931 8.69942 0.816824
225.537 8.91946 0.86002
182.756 7.27043 0.697142
194.506 7.24039 0.719197
198.187 7.95732 0.813386
212.098 7.81223 0.808712
196.996 7.51379 0.763496
213.966 8.06019 0.813786
176.957 7.12617 0.765834
177.004 7.73515 0.820231
167.018 6.17453 0.688733
173.388 7.5789 0.850022
177.832 8.16941 0.918281
151.28 7.52818 0.830565
143.918 6.99821 0.815749
150.534 6.05449 0.696713
170.643 8.3777 0.976484
178.76 7.46194 0.911486
147.299 7.07279 0.857613
163.362 7.5545 0.905161
146.031 6.56363 0.821509
158.597 8.7916 1.09252
148.185 9.06402 1.12728
144.634 7.71487 0.9757
146.572 6.60211 0.874747
128.489 7.36564 0.969659
144.792 7.89245 1.07073
143.896 8.18234 1.07768
126.505 6.75696 0.895239
168.66 9.37576 1.29369
136.466 7.58119 1.0326
144.705 9.55379 1.32355
146.76 8.01518 1.12355
142.257 8.17943 1.14494
131.499 6.87163 0.99588
125.819 8.26591 1.21289
131.678 7.88611 1.163
155.184 9.4606 1.44527
137.158 7.53305 1.15043
117.369 7.41729 1.13146
118.28 7.0775 1.13495
142.16 8.32311 1.30071
122.963 8.2745 1.28237
120.457 7.34457 1.17522
125.911 6.62225 1.07978
118.693 7.82467 1.26183
119.724 7.54703 1.23048
116.766 8.50653 1.42039
112.675 7.38225 1.23438
103.19 6.35315 1.11164
118.699 8.64096 1.48742
105.358 7.35825 1.29016
115.085 8.70464 1.53499
108.064 7.37468 1.31324
99.6711 7.02374 1.28586
108.831 8.33615 1.45141
104.664 7.4791 1.38069
103.062 6.77237 1.25968
115.126 8.34056 1.52881
89.1272 7.85354 1.49217
93.6411 8.41297 1.60993
103.675 8.05983 1.56258
96.9853 6.96731 1.35204
104.835 7.26549 1.40747
104.36 7.22771 1.40021
97.94 7.67175 1.53212
99.9709 7.76173 1.57007
110.786 9.07027 1.84203
93.5013 7.04152 1.41544
94.7126 8.49936 1.79503
98.7092 8.21839 1.68245
88.324 7.01381 1.49474
95.7532 7.60761 1.6409
95.1331 7.39013 1.57577
87.8259 7.86751 1.69046
80.1659 7.10955 1.56757
75.3315 6.7951 1.51523
87.4175 7.36513 1.65589
87.3552 8.08877 1.80078
78.3602 6.30564 1.42335
87.9174 7.1639 1.64912
95.5022 8.54158 1.91494
79.1305 7.38564 1.73021
71.4763 7.79753 1.8589
75.6646 7.59431 1.81121
83.2604 7.62611 1.83816
82.1702 7.79656 1.91035
84.691 7.68567 1.87375
80.2207 7.51481 1.85504
77.217 7.57219 1.85056
70.6446 7.15038 1.77183
82.2334 8.41195 2.10652
69.5294 6.70393 1.70935
71.4039 7.04542 1.89064
89.687 8.21771 2.03847
72.9965 7.72329 2.04241
79.8469 7.14317 1.92612
86.0009 8.61903 2.29872
75.0715 7.82091 2.04856
62.418 6.52673 1.7524
69.0386 7.09017 1.86683
72.9144 7.67075 2.10462
67.0955 6.93264 1.9027
66.4472 7.75067 2.21797
71.7187 8.10454 2.24714
74.7284 7.71753 2.15764
68.7543 7.05827 2.03784
69.7009 8.52319 2.37183
70.0732 8.38586 2.37445
66.6907 8.35421 2.43046
62.3284 6.85678 2.04384
71.6635 8.82957 2.62308
58.0271 6.70641 1.98728
63.9713 7.33525 2.20006
69.7493 8.39208 2.47013
65.7755 7.92503 2.41867
58.9663 6.36141 1.98729
65.6647 7.86759 2.47179
75.5531 9.47631 2.92599
65.0452 8.11584 2.68135
67.2282 8.269 2.57634
61.342 7.14746 2.24605
62.894 7.91965 2.48081
57.6673 7.39644 2.44361
56.389 6.69468 2.19559
57.6304 7.18067 2.34339
64.2634 8.73747 2.8689
58.7973 8.2895 2.77341
58.6493 7.19379 2.44657
61.1053 7.79013 2.64318
59.7289 7.37578 2.41305
56.4526 8.44662 3.00056
54.6157 7.27195 2.52592
54.3438 7.67885 2.62374
53.8694 7.5959 2.57465
52.5033 7.67921 2.72098
57.6529 7.32258 2.59983
53.1326 6.95325 2.59186
54.5565 8.13254 2.80919
49.7508 7.34751 2.62389
52.2807 8.37013 3.11158
55.4223 8.27549 2.91179
46.771 6.72735 2.54438
55.9342 7.75865 2.96436
47.9424 6.74681 2.55969
46.7399 6.87593 2.56353
52.0668 7.37189 2.85481
46.3845 7.16136 2.60062
49.4543 7.05468 2.80059
41.679 7.45152 2.96663
51.1612 7.67318 3.03661
50.1677 8.94842 3.51364
47.564 6.20508 2.47519
53.5333 9.00133 3.43567
43.7744 7.40874 3.14307
47.5399 7.85632 3.08839
52.0972 8.37947 3.3546
44.8099 7.83175 3.27569
46.1581 7.78891 3.05678
43.2325 7.03174 2.93796
52.4615 8.84817 3.70683
45.3233 7.72894 3.13918
46.3312 7.85231 3.32585
43.097 7.95605 3.42567
46.7989 7.39544 3.30477
48.8411 8.13148 3.43954
45.1005 8.75526 3.73469
41.4646 6.56922 2.87695
42.5092 8.38056 3.64096
45.6744 7.42134 3.30292
43.9387 7.83031 3.36497
52.5376 9.48073 4.33186
40.4033 6.86035 3.04525
43.0109 7.53467 3.46574
42.2669 8.56587 3.80244
40.1095 6.51935 3.13259
38.1662 7.25643 3.45007
42.6758 6.19594 2.79268
43.8502 9.09949 4.29968
44.3533 8.78448 4.04697
39.1536 7.72991 3.66458
40.9372 7.34372 3.50585
42.9204 7.89039 3.89617
37.0826 6.16469 2.99696
41.7014 7.29558 3.44294
40.7248 7.3189 3.67968
43.275 8.6154 4.00913
39.4153 7.54198 3.68217
42.8821 7.64747 3.70394
38.7409 8.30072 4.45885
45.1652 8.21838 4.06741
39.2124 8.62686 4.30152
39.1011 7.78289 3.94757
36.2777 7.71023 3.80596
43.0294 8.70031 4.40992
33.4079 7.12924 3.47929
37.9085 7.97404 4.16271
37.7807 8.39944 4.43634
38.9896 7.75621 4.0343
38.3454 9.02911 4.71239
40.9616 8.04331 4.27261
39.6171 8.31467 4.52684
38.0917 7.94361 4.20118
32.2328 6.80226 3.74467
38.2713 8.60752 4.57406
33.7631 7.69558 4.25325
39.6492 7.83486 4.38909
35.1203 7.07913 4.01244
38.2524 8.39292 4.58433
38.6879 8.27886 4.73897
34.6834 8.84808 4.80792
35.7518 8.25112 4.57034
34.9926 8.16015 4.57458
40.0606 8.46338 4.82879
33.233 8.36594 4.90017
32.8034 7.3348 4.47327
35.304 7.39396 4.14068
31.0815 7.79368 4.55788
36.7454 7.94752 4.55033
33.3956 7.17768 4.21094
34.4626 8.3532 4.85562
33.7886 8.32206 4.92147
31.6227 7.44383 4.44752
31.269 8.22066 5.15847
32.9998 8.95588 5.44582
36.3315 8.07025 4.63881
30.4106 7.05029 4.4188
33.2022 7.17263 4.59823
29.9876 6.5474 3.96618
32.0683 8.14465 4.82663
27.3144 6.70734 4.09129
29.6173 7.80036 4.98119
31.1159 7.90021 5.04842
28.9075 8.20526 5.25829
29.7293 7.5825 4.71794
33.1145 8.54291 5.21958
28.8765 8.72819 5.65367
30.4473 8.65178 5.52733
28.7758 7.48644 5.12983
30.3848 6.7347 4.5279
27.8222 7.27348 4.91094
33.1686 7.97604 4.94617
27.5079 7.40186 4.59008
29.5132 8.39055 5.29362
28.1038 7.54777 5.35215
30.9656 7.86475 5.22944
27.3058 8.42333 5.6073
31.2367 9.682 6.42439
27.9761 8.26322 5.62457
29.2286 8.83146 6.30465
29.4625 8.39402 5.38514
28.9466 7.6412 5.2639
29.7413 7.56689 5.43423
27.4644 6.85115 4.80788
27.5573 6.98321 4.94619
27.2857 7.86846 5.43906
30.474 7.48897 5.13816
26.4826 7.20394 4.88633
29.8737 7.51433 5.43313
29.0607 8.96455 6.27169
24.0588 7.45724 5.34546
26.9026 8.48333 6.23746
26.1272 8.17373 5.79805
23.1516 6.8532 4.90802
27.4991 8.69652 6.69343
25.4711 7.81715 5.7591
26.057 8.68569 6.52548
27.5783 7.27612 5.49576
28.0814 7.60265 5.52852
24.9634 7.3613 5.43955
28.3586 8.12862 6.03632
27.0931 6.89941 5.09613
25.7975 8.52558 6.59967
25.8521 8.36933 6.42346
28.1047 7.55116 5.6439
24.1752 7.30583 5.62189
27.6953 7.76762 5.75439
25.0872 7.38298 5.95457
21.9908 6.94417 5.92531
24.6013 7.20647 5.77891
24.6698 6.87481 5.19216
25.4739 7.41057 5.72157
25.2718 7.2287 5.92713
24.7015 8.07183 6.16628
25.7422 7.73973 6.33959
21.9064 7.36963 6.07782
24.1124 7.77786 6.31167
25.568 8.55468 6.84229
22.9891 7.23716 5.55913
22.454 7.81702 6.39424
24.2392 8.0494 6.4304
23.1415 8.18303 7.04727
23.116 7.86798 6.46435
25.3277 8.10779 6.871
22.7772 7.42055 6.3714
26.6665 8.45957 6.96762
25.2551 6.97496 5.74384
22.4754 8.57632 7.57448
27.7141 7.23832 6.06626
25.1178 8.33736 6.80922
22.6712 7.82192 6.70771
23.7394 7.9135 6.91247
22.1863 9.07756 8.22639
23.7123 9.06652 7.37591
23.6484 8.44029 7.78856
22.6642 7.39186 6.18206
21.4685 7.82645 6.82082
22.8848 7.42118 6.53105
23.1297 7.62903 6.42059
20.5738 7.71995 6.88421
20.9147 8.71025 7.65865
19.8881 7.05913 6.55289
20.6432 7.82177 6.98455
21.4964 7.84604 7.45236
22.3106 7.1413 6.45885
22.3451 8.19008 7.16659
19.9302 7.8334 7.43361
22.1564 8.96601 8.2359
21.7444 8.38711 7.54175
23.196 7.76747 7.22478
18.4683 7.61989 7.54148
19.9576 7.29798 6.71536
20.8487 7.48562 6.74921
21.0151 6.88553 7.02917
20.746 7.94299 7.56601
21.6845 8.76632 8.36723
21.0611 7.03924 6.49095
19.6119 8.58659 8.14138
22.9371 8.08261 7.63078
20.335 8.64152 8.20221
18.923 7.91373 7.8263
17.3674 8.54146 8.42181
20.7403 7.75772 7.38695
20.2952 8.40989 7.74686
19.7016 6.70636 7.04209
19.3963 7.18423 6.91372
21.2377 9.15979 9.12212
20.8556 7.47181 7.12684
17.862 7.95243 7.98798
20.1441 7.94393 7.38604
19.0449 7.34982 7.71893
19.6997 8.50498 8.24927
21.9296 8.13276 8.66498
19.1474 8.0659 8.40865
19.9581 8.87065 8.69156
17.2711 7.22427 8.21986
19.6228 8.3477 8.36971
18.9053 7.15594 7.09974
17.3879 7.16542 7.14411
17.4307 7.68647 8.23232
19.9123 8.13879 8.7017
18.0381 8.32605 8.95618
19.9249 9.17061 9.36917
20.5898 8.21322 8.81394
19.6709 7.46601 8.16203
18.6209 8.34033 8.76705
20.0922 7.3958 7.76508
17.7815 7.81347 7.83512
18.1261 8.53643 8.97406
19.0484 7.19163 7.36357
17.0412 7.62808 8.52985
17.3542 7.76861 8.46724
17.6528 7.54581 8.24911
17.4317 8.20985 8.5879
19.0843 8.56479 9.70973
19.6238 7.78288 8.65619
18.3407 7.97976 8.45514
16.2343 7.67061 8.4137
18.8387 8.68945 9.686
17.1004 7.8005 8.15481
16.2953 7.86077 8.90916
18.8886 8.47988 9.92062
15.2077 8.21613 9.21061
17.8615 8.74599 10.1023
17.8789 8.2566 8.99693
15.1761 7.7046 9.28339
17.7886 7.61741 8.65231
17.4878 7.60639 9.13012
17.6673 8.56217 9.97832
19.3799 9.1268 9.81787
16.1463 7.51151 8.61199
16.4242 7.84944 9.45067
16.7263 8.5625 10.3518
17.4933 8.78197 10.4202
14.9545 7.12655 7.78326
15.9955 8.30936 9.75006
16.3096 8.17142 9.55398
16.6101 8.54053 10.3321
18.0157 8.8908 11.0169
17.8139 8.1273 9.7194
16.5227 7.7418 9.39762
17.5439 8.92892 10.2774
17.8065 8.25749 10.1025
16.8086 7.45424 8.8126
15.5489 7.68987 9.32215
15.7457 8.15901 10.4543
16.9015 7.72871 9.0334
14.5474 7.49009 9.43756
16.276 7.82371 9.71124
16.6537 9.039 10.7318
15.7872 7.82133 9.65201
16.6075 8.59284 10.351
15.4997 8.28703 10.3347
13.773 8.09841 10.5662
16.6709 9.2634 11.3813
15.3183 8.09233 10.0005
16.9614 8.15753 10.3694
16.7176 8.51507 10.3241
15.2943 8.73913 11.0514
16.3837 9.23588 12.0439
13.7125 7.79842 9.57276
13.9636 7.83019 10.2747
15.791 8.63604 10.6365
15.3425 9.0464 11.8174
14.6016 7.41681 10.1058
17.0976 8.24631 10.8636
15.4941 8.33367 11.0673
15.7673 8.87217 11.6495
15.3976 8.64957 10.9958
14.6355 8.78441 12.0147
14.85 7.03947 8.88807
14.9353 8.34692 11.2615
15.469 8.37511 11.0552
13.6322 8.15116 11.1462
15.1116 8.55238 11.9914
14.855 7.54633 10.2591
14.9799 8.93597 11.982
15.6134 9.15215 11.4623
13.2941 7.79077 10.7093
14.8519 8.27081 11.2403
14.4269 8.24201 11.1257
16.0709 8.67752 11.1397
13.7242 8.36361 11.9118
14.9338 7.85071 10.2646
14.672 9.17316 13.5299
13.7047 8.0195 11.0595
13.1307 7.7928 10.9709
13.8536 7.6938 10.343
12.2829 7.45151 10.8207
14.3299 7.78346 11.4742
14.8507 9.25993 12.5777
13.2595 8.34485 12.1804
14.91 8.9327 12.5034
14.8904 8.01632 10.2477
14.418 8.72143 12.4517
14.9151 8.53274 12.4251
14.18 8.0625 11.742
13.6116 7.20619 10.5597
14.1956 8.40633 11.4867
14.0811 8.37171 12.8712
14.4447 8.41421 12.681
14.4802 9.18005 12.3661
14.4572 8.59489 12.7919
12.9859 8.06132 12.3103
15.2639 8.72472 11.2609
12.084 8.5841 12.8925
13.8796 7.0214 10.6357
13.5713 7.55571 11.2448
14.532 8.80879 13.5536
14.8074 9.77941 15.2629
14.0981 8.24783 11.8
13.4544 7.75634 12.2609
15.1103 9.61195 14.2352
13.9217 7.52814 11.108
13.6881 8.30871 12.394
13.0759 8.43235 12.8158
14.4786 8.89634 13.3324
12.4721 8.42925 12.8229
13.8619 8.70896 14.4854
13.616 9.09187 12.3233
12.3061 6.98711 11.1237
12.9128 8.80275 13.5215
13.2438 8.62691 12.5676
14.2977 8.31892 12.5567
11.1847 8.07817 12.4835
12.5127 7.60323 12.4963
12.64 8.34403 12.5076
11.1146 7.27593 11.7658
12.2276 8.53419 12.7307
13.1818 8.7764 14.0271
12.5173 7.88084 12.7245
13.3645 8.58411 13.7325
12.995 9.51205 14.1845
13.0038 7.52957 11.9345
12.5533 8.38043 13.0636
12.489 8.42936 14.9334
12.9138 8.08867 11.89
11.3944 8.67099 14.1119
13.8145 8.20382 13.439
14.2736 8.95598 12.9353
12.5115 8.63306 14.6781
12.4532 8.9819 15.6393
12.7275 9.00853 14.1175
12.8896 8.95504 15.1882
12.1889 8.38468 13.6271
11.7444 8.41915 13.5737
12.6597 9.62013 15.7598
14.219 10.4118 16.7126
11.5238 7.8344 13.455
11.6531 7.88585 12.1846
12.3552 8.46638 14.853
12.1526 7.63929 13.2487
12.1448 9.16305 15.8515
11.2214 7.78893 13.4455
12.6935 9.44049 14.8309
12.3779 8.37518 12.948
11.8046 10.0507 17.1587
11.9705 8.56926 13.7848
10.7639 7.77865 13.8039
11.9448 7.9808 13.4304
12.3205 9.19013 15.1877
11.4591 8.0398 13.4823
12.8669 8.05004 14.4242
13.0947 9.65643 16.4648
11.1958 9.30006 14.5195
11.5615 8.20923 14.3112
10.6374 7.60919 13.248
11.9124 7.72662 13.5833
11.6271 7.52409 13.3707
12.1213 8.88157 16.2038
13.4075 8.83764 15.6373
12.5632 8.90567 15.8188
11.7727 8.76789 15.2323
12.3816 7.55182 13.7103
11.5357 9.2543 16.8542
14.8291 9.2594 15.8683
11.4865 8.66815 14.2802
11.1603 7.35832 12.4716
11.7574 6.30525 11.9652
12.0312 8.91176 14.0169
10.8478 7.05463 14.4246
11.2641 8.63022 15.1589
11.1983 8.45802 15.0908
11.4604 8.73704 15.7533
11.5353 7.80376 13.9179
10.1617 7.40606 13.1787
11.6558 8.47101 15.9475
10.8613 7.65268 15.291
11.3901 9.23673 15.6216
9.74766 7.62934 14.6453
12.2764 8.35752 15.674
10.5024 7.91801 14.3921
10.4324 8.43611 16.2182
10.521 8.28494 14.4824
10.7153 8.33354 15.3959
11.2027 8.39683 15.1813
9.79107 7.0586 14.763
11.3262 9.02279 15.2872
10.1515 7.68158 15.0772
11.313 9.07665 16.1819
10.3741 8.01505 15.9983
10.2704 7.47032 13.5715
10.509 7.91778 15.7578
10.9451 8.36947 15.869
10.8572 8.21972 13.6757
9.38574 7.56386 14.9193
10.832 8.4934 18.2877
11.2045 8.60693 16.0167
9.95053 8.23355 15.9664
9.76732 8.40882 15.4545
10.2507 8.5302 17.1433
9.94279 8.02586 15.4767
10.2099 7.98041 15.7561
9.42808 8.0719 15.678
11.6907 9.3567 16.3565
9.44998 8.36069 16.3936
10.1225 7.99438 16.5483
10.7853 9.78018 19.5374
10.2601 9.04655 17.2955
9.88614 8.5604 16.3831
10.0826 7.40805 14.8097
9.53896 8.59042 16.5302
9.61049 8.2724 15.0961
9.24836 8.67992 18.6134
10.6051 8.77362 17.4958
10.6295 8.99016 17.9715
11.6668 9.15172 16.0795
9.34542 7.57351 15.189
10.3514 8.86786 18.1631
11.1598 9.63483 18.8435
9.49591 8.78462 17.1021
10.5842 7.86251 15.8802
10.806 9.64914 19.8651
10.2727 9.39896 18.5089
8.91439 7.58332 16.62
11.1466 9.96916 20.7654
10.2455 8.77179 18.1857
9.91244 8.01398 16.2701
9.84471 8.47764 16.6389
9.60364 9.74327 19.6618
10.1916 8.3406 17.4705
10.5472 8.92133 18.4125
10.6746 9.09079 18.51
8.66926 8.27586 15.7763
9.39201 8.50502 17.2966
10.6309 8.57107 18.1465
10.1066 8.78637 18.7831
10.479 8.90478 16.3225
9.37266 9.61732 21.0114
10.172 9.71355 19.2327
10.4719 8.42895 17.2798
9.09043 8.00995 17.3126
9.38475 7.80871 17.6026
10.1866 7.99617 16.4453
11.287 9.92288 19.7083
9.26447 7.41085 15.2074
10.168 9.07995 18.8909
10.3182 8.76832 18.3811
10.0395 8.31841 17.7798
9.25027 8.97875 17.9007
8.74521 7.99969 19.127
10.4575 8.60472 17.6328
9.77815 7.86311 16.585
9.24655 8.67733 19.1568
8.78109 8.15757 18.7361
9.78724 7.55245 15.0317
9.1317 7.75364 18.713
9.46849 8.32535 17.8695
8.48984 8.87438 18.6281
9.32915 8.84143 19.704
8.68385 8.4023 18.7195
10.1143 9.21881 20.7984
8.66253 7.47758 16.6104
8.76443 9.5852 20.1762
9.17337 9.18705 19.9369
10.6117 8.02822 15.9973
9.78009 7.87417 16.0593
8.76634 7.96244 18.4874
9.64408 7.84105 16.0823
8.23463 7.76534 18.1133
8.95749 8.45543 20.2317
9.74433 9.01328 20.0522
8.78999 9.34368 20.4852
8.72078 8.58315 19.7529
7.51351 7.98789 17.9416
9.95646 8.37165 16.9833
7.62318 7.73061 17.7413
8.44309 8.03269 19.1959
8.12485 8.33917 19.0912
8.63615 8.50722 20.0738
9.4236 9.10881 20.6152
9.02153 9.19772 21.4263
9.75368 8.50943 17.3762
9.83444 10.3393 23.425
9.12348 8.67344 20.9869
8.92387 8.92788 21.0506
9.33662 9.05227 20.0628
8.8097 9.06283 18.401
8.48999 8.30652 17.9134
8.64457 8.04739 21.2899
9.23059 8.38951 18.3131
8.56929 11.3271 26.3848
9.46761 8.74094 18.8341
8.35959 7.89272 19.0332
9.44703 7.85509 16.7323
8.10656 8.86755 22.2176
8.17246 10.1552 25.6809
9.82281 9.5906 20.8555
7.31786 7.75362 18.5333
8.6404 8.36727 20.4347
7.88919 7.20809 16.9098
8.1332 8.53748 20.1869
8.72639 8.85385 19.1268
7.31675 8.5928 20.3011
8.61799 8.00613 20.6282
8.0399 8.62673 22.2982
9.69933 9.71562 23.1837
9.09622 8.29332 20.5311
9.34153 9.44797 22.0175
8.08738 8.58105 19.3487
8.06576 8.13098 19.1893
7.92869 9.01795 22.498
8.51371 8.90151 19.3122
7.48886 8.00769 19.2829
8.62591 8.76493 21.7891
8.14661 7.20953 17.5991
7.42612 9.43887 22.5186
8.25843 10.1698 24.841
8.33319 8.0665 20.6627
8.03535 7.89088 18.964
7.65755 8.08873 20.2907
9.33437 9.2721 23.8561
8.75553 8.2986 20.9628
9.24006 7.86519 18.0172
8.25568 8.72712 21.7597
8.24226 9.48582 22.091
8.00633 8.74578 21.9946
8.4031 8.72867 22.5088
9.15164 8.73557 21.4827
9.27572 9.49243 23.2541
7.98364 8.31865 19.4244
8.77074 8.07884 19.982
8.53069 9.15709 24.019
7.90561 8.95478 21.5353
7.71108 9.62364 23.1215
7.89023 8.32163 20.7376
8.4295 9.96264 23.348
6.96103 9.44087 24.1276
8.83342 8.59425 22.218
8.75684 9.96139 24.452
7.7209 9.27938 22.6055
7.8199 8.39432 23.4549
9.35423 10.2578 22.7387
7.33148 7.8191 23.9306
8.80431 9.4414 22.9798
8.6027 8.04121 19.6554
7.51076 7.65418 22.6646
9.1955 9.31321 23.4742
8.65201 7.66892 17.9577
8.53825 8.59255 22.6733
8.41506 9.13337 24.6672
8.31227 9.46524 22.3432
7.89839 10.5384 25.2035
7.52996 8.58214 21.8658
7.94815 9.2284 24.9706
7.39317 8.30588 21.6539
7.86105 8.96971 25.1197
8.62514 9.86456 25.8929
8.4819 9.95614 24.7035
8.23766 8.5869 21.1244
7.17954 8.24411 21.6299
7.512 9.09294 24.8246
7.73994 9.07351 23.5656
8.30863 9.57236 24.9928
7.65125 8.00179 22.1732
7.35682 9.27668 26.7854
8.6683 8.96136 21.9746
8.27568 9.97517 25.836
8.32976 10.544 23.8691
7.62635 9.19038 24.1733
7.1973 8.46681 27.2337
8.73929 9.63383 22.4949
7.22888 7.92055 22.5305
7.32753 8.37563 23.1198
7.67305 9.12886 25.1268
7.78558 7.72385 19.5094
7.52521 9.1171 24.6056
6.87419 10.2898 29.14
7.89111 8.65941 21.2233
6.98738 8.13639 23.2222
7.67265 8.08329 22.5961
8.08485 8.59069 22.0049
8.11243 7.90422 19.1588
6.52227 7.51907 19.8933
7.38688 8.38334 24.271
7.82662 8.74881 22.8967
7.55726 8.04592 23.1655
7.75651 9.14547 26.4039
7.96671 7.5858 22.2364
8.3097 9.21641 20.843
6.79342 7.94283 25.5916
7.78266 9.06199 24.3824
7.45828 8.61174 23.2424
8.09585 9.17189 23.575
7.89313 9.60305 26.6838
7.34768 8.58934 24.9314
7.9216 9.38146 22.9047
7.61651 8.61657 25.027
7.54428 8.61152 26.9775
8.10063 8.6883 21.7559
7.63187 9.97982 28.372
7.56437 8.63952 21.233
6.99271 8.97339 24.6278
6.72777 7.85032 23.8577
7.34392 8.17565 21.1941
5.97419 6.77319 19.3158
7.30698 9.37058 26.9979
7.94717 7.75674 22.2886
7.52828 9.5838 25.293
8.04653 10.3403 28.6143
6.85378 7.57196 23.6572
7.07218 8.86786 27.2486
6.96978 9.1971 23.9159
7.55289 9.21407 26.6003
8.16864 9.14656 25.4177
7.45852 8.80063 24.2732
7.21022 8.79235 25.5126
7.17082 9.51642 29.0791
8.28134 8.15988 22.9535
7.81939 8.22697 21.1645
7.18774 8.11931 22.4759
7.2989 9.30002 28.969
8.11259 9.54451 27.659
7.67268 10.2152 29.7244
8.05413 9.7266 25.0358
7.0428 8.72331 25.0856
7.5643 10.0169 26.1769
7.08749 8.41596 24.602
6.73397 8.37424 22.311
6.84985 7.26745 22.3936
7.60798 10.4801 29.071
7.14504 9.03909 26.0215
6.403 8.25539 27.3683
7.90904 9.93372 27.3662
6.76817 10.2133 28.9576
7.0743 8.1677 25.3384
7.27018 9.23649 26.4376
7.62138 9.28437 25.0829
7.32133 8.89962 23.8952
6.54088 8.25967 23.4494
6.69218 7.20589 23.0621
6.99252 8.23788 24.1922
6.70208 8.67364 28.8998
7.91332 9.57335 25.6409
7.18545 9.37201 25.7482
6.62096 8.76182 25.7721
5.89674 8.41308 26.2803
6.47188 8.1292 24.0218
7.54418 8.56372 27.2615
7.04112 8.91809 29.1035
7.31295 8.97741 22.8919
6.88505 8.68484 25.8841
7.10383 9.46928 27.1345
6.23024 7.88456 22.9157
6.14859 8.38133 27.255
7.19047 8.26115 24.3288
7.06536 8.59538 26.5524
7.15569 9.64536 27.9862
7.01591 7.91726 24.0138
7.29342 9.01515 26.586
7.10451 8.47687 24.9681
6.65363 7.46804 25.7275
6.56813 7.82133 20.8839
6.31569 8.20444 23.9773
6.54729 8.39133 27.5315
7.27867 7.77532 23.0716
6.44919 9.20643 29.1215
6.89107 9.95772 27.6564
6.39111 7.86562 25.875
7.10264 10.8789 32.8895
7.45157 9.40574 26.7646
7.02911 9.71989 29.8475
6.74478 7.62566 24.3278
6.34801 8.91726 26.5284
6.6641 8.90156 27.4808
7.50873 7.99761 24.0481
6.63764 9.63587 30.4893
6.92436 8.86417 25.6637
7.06557 9.32264 29.0237
6.80265 9.74698 29.1421
7.13956 9.0115 29.638
7.25046 9.19701 27.796
6.20568 6.83302 21.8154
6.82601 8.91353 28.2391
7.26472 9.67953 28.0389
6.06863 8.50427 24.5151
6.42512 9.45788 31.426
7.40497 10.7713 32.2786
7.40915 8.50388 28.7068
6.85413 8.07972 25.0582
6.33491 8.24371 29.969
7.22434 8.98214 25.7054
6.79103 10.3682 32.0154
6.76294 9.5597 28.7382
7.05162 9.80408 27.9744
6.38175 7.92198 25.5789
6.06131 7.79244 25.5043
7.26794 8.48315 27.4665
6.33576 8.5477 30.2415
7.16147 9.59803 26.5337
6.47473 9.08378 29.7019
6.678 10.7154 31.426
6.99195 9.46461 26.8903
6.37867 7.68207 26.6221
6.54365 8.6689 27.8912
6.42146 9.18567 26.9706
6.18541 7.86205 27.9355
6.28157 7.86259 25.7341
6.61009 9.86236 29.6269
6.99997 8.87293 31.5647
6.28114 8.77789 27.2405
6.03412 8.49892 27.4617
5.79172 9.34938 29.4207
6.05124 7.82586 25.8229
6.74283 9.3126 28.6995
6.30114 8.04113 28.9837
7.37043 10.1665 28.8325
6.73653 8.8056 27.7406
5.74267 8.01262 26.2479
6.55691 8.54574 29.2178
7.11606 8.18828 25.8662
5.95237 9.10685 29.7265
6.28438 10.475 38.0911
7.44162 9.88289 30.0746
6.05662 8.24881 26.0532
5.3504 10.6915 31.8826
6.7244 8.23846 32.2614
7.3624 10.1617 29.7546
6.07616 9.10585 28.1642
6.40729 8.85811 26.4565
6.08633 9.95021 34.9948
6.96207 9.54458 31.0425
6.71865 8.58739 26.4452
5.83114 8.0801 28.9596
6.44543 9.79987 30.37
6.07177 9.14324 30.7178
6.75216 9.96888 32.4814
5.77049 9.36725 32.8378
6.48016 9.61796 25.5328
5.85068 8.78501 31.1271
6.5071 9.01832 31.7034
6.52663 9.09671 30.2032
6.41005 10.3989 31.2575
6.44102 7.91642 29.7913
7.16837 10.0296 29.1524
5.14276 8.45905 29.8682
6.68283 9.63302 30.9015
6.27207 7.90195 25.5321
6.00637 9.16996 33.1087
5.94863 9.61528 30.3198
6.47449 9.07562 30.6436
5.75402 9.64501 30.6138
5.68418 8.33656 32.6762
6.38336 8.75128 32.0406
7.01882 9.91643 27.298
6.01263 9.47905 30.5845
6.4477 9.6795 32.2429
5.84506 8.4717 29.0877
5.98293 8.16821 26.3486
5.86951 9.08576 28.0871
5.14251 8.09162 28.5288
6.32885 9.96312 31.761
5.94837 8.73638 30.8892
6.69223 9.7732 30.471
6.06908 8.57538 29.1751
5.97384 8.45337 27.8534
5.79454 8.79543 30.7745
6.43126 9.16163 32.0272
6.77167 9.62251 35.614
7.00333 9.32899 30.2367
6.08767 9.09676 29.5626
6.40322 9.30514 32.3451
5.84315 8.66572 28.5635
5.50468 8.58018 31.1308
6.85808 9.45527 31.8102
5.8101 9.13539 31.2906
6.58766 9.09571 29.4901
5.94759 9.30902 34.7402
6.41549 9.63575 30.3521
6.54284 8.62674 27.622
5.90713 8.21819 30.811
5.38584 9.93654 29.574
6.07859 6.8922 28.638
6.82061 10.3481 33.1845
5.77538 9.14724 30.9469
5.91323 9.75925 31.7407
6.40997 8.17758 27.6932
5.73999 8.89957 36.2377
6.78949 10.0215 31.2816
6.66561 9.96474 30.0047
5.73568 7.81329 29.6014
5.67497 9.29943 28.9629
5.88894 8.9708 34.0857
6.25927 9.2904 34.484
5.67691 8.97767 27.9722
5.45621 8.69942 33.1842
6.26181 10.0904 34.8268
6.18262 7.89563 27.3992
6.67121 8.70854 29.4775
5.85122 9.68613 35.6935
6.90903 12.0737 38.9875
5.85855 10.3417 35.5173
6.10516 10.9213 36.7156
6.23819 9.53348 32.7589
5.68933 9.87505 35.7275
6.38179 7.12233 28.195
5.94298 8.78236 28.4035
5.6167 8.84643 31.0821
6.9813 8.62886 29.4307
6.28063 9.96046 31.299
5.45384 8.93839 34.7249
5.79375 8.88882 29.2958
6.01256 8.8511 32.2838
6.16725 7.9682 25.3705
5.57161 10.8447 41.2746
7.56283 9.68771 32.4113
5.50077 8.24336 29.6129
5.56003 10.5532 36.6044
5.77213 9.13353 33.6966
6.33372 9.13507 30.55
5.81251 8.90317 30.4599
6.35065 10.1463 31.3618
5.38025 8.33554 31.1737
6.03841 8.66441 31.591
6.152 8.85919 33.7184
5.74717 8.94585 32.8686
5.86492 9.49655 30.697
5.17214 9.51637 38.428
6.11588 9.47692 32.7166
5.66375 9.46753 33.2757
5.98894 8.57057 28.0105
5.9431 8.8298 34.5616
6.60286 10.9956 36.1306
6.00279 9.55381 36.162
6.01216 9.6617 36.4937
6.39944 10.058 35.3903
6.33071 10.1069 37.3143
5.65949 8.39029 30.4707
5.44405 8.82378 31.3335
5.44218 9.68619 36.9378
5.96236 9.58374 31.05
5.89283 8.73056 32.7669
5.9428 10.2688 35.197
5.98529 9.89676 35.3885
5.6686 9.87848 36.0659
5.70368 10.5325 32.2464
6.19231 9.96864 33.5661
5.68697 9.69523 41.0428
6.28399 11.6096 39.2056
5.97007 10.2455 36.1539
5.93257 9.06681 31.7026
5.87763 10.0646 38.686
6.37346 8.18109 29.2398
5.42227 8.87808 36.3612
6.04756 10.1367 34.0164
5.55016 9.2166 35.8674
6.37567 9.15332 31.0139
5.90457 9.73516 34.8553
5.89074 8.23909 31.4844
6.00141 10.7289 37.0266
6.3398 9.62666 33.7141
5.56243 10.1961 34.9284
5.25938 7.94706 33.5101
6.3697 9.36547 33.8969
5.82727 10.7845 37.1844
5.03981 9.07951 35.3372
6.18344 8.27032 27.4772
5.08702 8.16258 32.0667
5.75728 9.49418 36.6141
6.62431 9.30664 34.2308
6.15201 9.25824 30.4059
5.25876 10.3235 42.3758
6.17587 10.79 38.3162
6.09789 9.50085 35.9936
5.60413 9.62065 35.753
6.34692 9.90621 37.8394
6.34578 9.04446 30.4074
6.24863 9.1351 34.547
5.63743 11.0155 34.3328
5.37255 7.19116 31.5519
5.51028 8.65939 30.0326
5.38387 9.44829 37.9918
5.46979 11.2173 38.1907
6.05168 8.60742 35.5455
6.04216 10.3321 35.5377
5.56274 8.75831 30.7631
5.59542 8.75298 30.8051
5.83931 9.93737 37.4225
5.70645 8.26241 29.9413
5.27747 7.80879 29.9289
6.31687 8.86456 37.8377
5.5909 9.46438 31.5029
5.50002 9.1286 35.0847
5.38002 8.38528 34.4902
5.77652 10.1713 33.8372
5.76517 8.12413 31.0544
5.55318 9.62544 35.709
5.8203 8.71804 33.2106
5.57864 8.9264 34.2642
5.43866 8.53882 33.4905
5.68183 8.29979 33.4301
6.03362 8.6527 31.0658
5.44379 8.90103 31.0978
6.15139 9.65161 31.6145
5.90079 10.3041 38.2485
5.80444 9.25475 35.7428
6.12206 10.077 40.5491
5.0192 9.43133 31.3981
5.08447 9.23724 36.9541
5.57096 9.02336 32.2741
5.41261 9.5859 31.7266
4.90964 9.09445 38.6921
5.80816 9.11872 32.6902
4.84694 8.96529 35.6775
5.57596 9.53582 34.6871
6.09249 8.39423 32.8449
5.67332 8.13437 31.377
5.53278 9.32452 37.0974
5.78662 8.04364 29.4383
5.61713 8.59023 32.6312
5.31038 8.90906 34.266
6.24179 9.03894 36.4098
6.12476 8.84745 32.419
5.78197 8.80661 30.235
5.3233 7.99459 37.1751
5.48357 9.10103 33.222
6.13047 10.5878 37.8991
5.73166 9.26552 36.6976
6.11843 9.78363 34.4552
5.32648 8.77284 33.3645
5.91854 9.27039 37.2442
5.74632 8.92479 32.8957
5.24967 9.8613 35.4034
5.46429 8.87553 30.2653
5.23466 9.03877 42.0546
6.92431 9.86006 37.5361
5.54229 9.62642 34.0422
5.43122 8.80791 35.4712
5.8099 9.41139 32.1314
5.54914 8.5388 40.2103
6.37991 10.3586 35.7755
6.15546 11.0571 38.6201
5.4293 8.82643 36.5865
5.69148 9.2987 31.9407
5.37946 9.52821 37.5886
5.45696 8.06517 34.804
5.65058 8.96447 34.0591
5.40094 7.84307 29.4978
5.00733 9.05257 35.0155
5.55746 9.22501 34.9377
5.8414 9.57724 34.9631
5.50345 8.88457 33.3618
5.70786 8.96123 31.8413
5.56747 9.37873 35.0833
5.33883 7.78399 31.9512
5.582 8.94311 35.9238
5.42166 9.48054 35.3883
5.7323 9.025 35.8048
5.56821 9.79215 36.8912
5.36454 8.3674 35.4816
5.50985 10.2286 35.7354
5.268 10.3062 39.1605
5.54399 9.36428 37.0409
5.39449 9.29464 37.3522
4.85497 9.65238 37.1927
5.89062 9.93655 41.5663
5.84066 8.94909 33.4947
5.5074 9.78685 35.487
5.31288 9.43553 36.0773
5.72889 9.12288 31.7097
4.65856 9.42965 39.5474
5.77358 8.74015 34.1554
5.12702 9.58799 35.9079
5.31454 7.96308 30.9435
5.64163 7.74843 33.5927
5.28079 10.1689 36.8455
5.26292 9.12097 33.3478
4.88042 7.59631 33.9296
5.037 11.0018 38.5854
5.30214 8.7848 36.0815
5.9316 9.34785 37.0058
5.62444 9.59654 32.4007
4.51415 8.66263 32.5955
5.35067 8.04377 36.0194
4.54125 9.98279 36.7255
5.55106 9.23962 34.0855
5.39934 8.41404 33.6206
5.12886 8.39159 34.5647
5.18349 8.72735 31.5016
5.33816 8.99464 34.834
5.05043 9.89408 40.6362
5.98827 10.2769 42.8563
6.08743 9.83846 33.9389
5.51041 9.08095 38.511
5.92707 10.2445 34.2896
5.44383 8.80692 35.713
5.23361 8.59544 32.8187
5.07526 8.12547 34.7998
5.08207 8.44436 28.4165
5.6127 7.60704 34.3528
5.55532 8.64879 31.6873
4.81206 8.45745 33.8868
5.02996 7.82221 36.9295
5.50874 8.77477 37.5402
5.17404 9.61016 35.3173
5.30886 11.3077 43.4511
5.88709 9.4667 34.3453
4.96023 9.4049 37.9366
6.01172 9.2263 37.3263
5.23858 9.06413 35.5687
4.90007 10.6111 38.7709
5.72198 8.97927 43.2949
5.34961 10.683 34.9271
5.40194 9.47883 35.7882
5.10851 8.40856 37.8165
5.6544 10.4485 32.5563
5.27667 8.16634 33.2327
4.78879 10.2189 40.8448
5.76642 8.19571 31.8985
5.10908 9.83437 33.5051
4.68489 8.96692 41.9179
5.71187 8.64731 36.1164
5.6315 9.51479 36.6687
5.33845 9.07415 34.2159
5.67088 9.70326 39.522
5.37524 9.70003 34.2998
4.76237 8.30383 37.4081
5.04351 9.82314 36.2175
4.9841 8.67486 30.8118
5.3384 8.26343 32.7283
5.08039 8.33103 33.1243
5.04683 9.27924 36.1655
5.55587 9.03946 33.174
5.20802 10.0447 37.7709
5.34596 8.90291 35.2813
5.80287 7.81703 34.3464
5.55905 8.07709 33.5045
4.95787 9.22002 41.5071
5.76513 8.54165 34.3321
5.65494 10.2617 33.4066
5.35071 8.51753 37.2748
5.85128 9.91092 37.437
5.5929 9.37632 35.209
5.49117 9.11737 37.4681
5.32657 9.52063 39.4444
5.63768 9.77702 38.1042
5.71083 9.57298 36.4861
5.37072 10.3341 36.5267
5.81405 9.88739 38.6105
5.4717 8.44854 37.4212
5.77646 9.65204 38.1177
5.57504 8.83719 36.1121
5.35562 10.4634 34.6511
4.59926 8.83535 38.9555
5.02288 10.059 48.0217
6.30742 10.2151 34.6505
4.65849 10.5839 39.9471
6.29613 10.1403 38.1908
5.04665 9.39377 35.7908
4.79469 10.128 38.4038
5.28526 9.6956 42.04
5.01622 9.71493 37.6063
5.08485 8.28467 35.6697
5.42752 8.35927 37.7173
5.84412 9.12998 36.4073
5.8269 10.2164 36.8073
4.94173 9.2498 39.4961
5.37638 9.58805 37.7147
5.40302 9.32295 33.3856
5.27315 8.91822 39.5898
5.45751 10.4437 39.8408
5.20816 9.93116 41.6963
5.69558 9.32861 38.6065
5.13588 9.03063 34.0078
4.64621 7.6784 30.3564
4.67467 8.59551 34.8533
5.32033 8.13235 33.0747
4.56666 9.1408 35.8699
5.11283 9.42016 39.7091
5.31797 9.68393 37.6145
5.50102 9.46202 32.3606
4.48109 7.93973 34.9792
5.07994 9.78892 36.599
4.92709 6.95324 33.6971
5.16668 9.94065 36.5632
5.10118 9.97433 41.3931
5.7687 9.04227 36.159
5.17366 10.3941 38.3763
5.3735 10.2957 37.43
5.01784 9.22807 36.7705
4.88284 7.12378 32.7945
5.35685 8.18603 31.3338
5.00323 8.47104 37.7681
4.95132 10.7042 41.3108
5.82669 10.4559 37.2016
4.9169 8.24853 33.3918
4.75288 8.53302 33.1808
5.54425 8.84947 38.9304
4.84657 9.96786 39.4828
5.11376 9.80614 36.235
5.1345 8.70749 36.4373
5.5015 8.8957 36.2836
5.14585 9.118 36.8856
5.5126 8.74398 33.9451
5.56809 8.65847 38.8791
5.51192 8.80705 33.2523
5.52857 8.98237 34.4806
5.02422 7.8167 29.0271
4.75928 8.33849 34.8063
5.26915 8.18699 34.2204
4.74464 9.19967 42.7706
5.79759 9.00518 36.8923
4.73768 9.76579 38.169
5.24673 10.8262 40.6387
5.56846 9.63564 34.6434
5.58699 9.7539 38.5607
5.32077 8.53045 37.4625
5.00663 10.8396 37.1357
4.92943 9.10417 39.6232
4.43217 9.99711 43.3756
5.26519 11.4478 40.9463
6.00619 9.39325 37.1946
5.43487 8.3699 38.8316
5.44493 10.1 37.6542
5.35423 9.38131 36.5781
5.05915 8.50157 35.7684
5.5522 8.06075 32.8467
4.84208 9.22406 34.6027
5.2624 9.27475 37.6387
5.31678 10.2317 35.3363
4.97444 8.31812 42.3373
5.31394 10.0181 36.8684
5.3799 10.0684 34.6222
5.12609 9.60972 41.9884
6.04229 8.81062 36.2423
5.52773 9.02824 39.6152
5.84982 10.0616 41.5364
5.76014 9.76489 33.6842
5.11013 9.6722 41.8557
6.00354 0 0