# pn-170911/RbIIA-35-RbIIF-1280-1959.psd
# Power spectrum* (dif=0,1,2) (really just |FT|^2)
# NOTE: only the first half! (symmetric)
# weeks: 1280-1959
# 432 clock-days, 167 excluded
# PSD: 1441
40087.9 1.45024 0.00512748
9.36178e+06 222.007 0.00562068
1.4277e+07 222.112 0.00711408
4.29427e+06 102.996 0.00699678
1.75265e+06 68.1353 0.00634524
1.04388e+06 40.4744 0.00704883
609066 30.2161 0.00684107
401951 19.1983 0.00682941
310295 17.2034 0.00716913
236804 15.0775 0.00800658
180020 11.5734 0.00755493
155851 9.55126 0.00756842
128101 8.71151 0.00782102
103962 7.94261 0.00790306
95011 7.14527 0.00895098
76847.3 5.59735 0.0084972
68503.3 5.56087 0.00950477
58242.8 4.69527 0.00904775
54704.9 4.74077 0.0104794
47052.9 4.06195 0.00851563
42328.3 3.98749 0.0123867
37982.5 3.49885 0.00875637
35445.6 3.53546 0.0116555
31704.1 3.02297 0.00941142
29580.9 2.73932 0.00975534
26858.3 2.87294 0.0109717
24442.4 2.69074 0.0108606
23486.9 2.82442 0.0121228
21412.5 2.51345 0.010791
19728.8 2.49554 0.0131897
18750 2.25109 0.0112266
17265.7 2.06514 0.0117477
16304.4 2.21149 0.0117053
15255.3 2.09312 0.0136459
14434.3 1.89597 0.0116044
13576.7 2.02196 0.013923
12872.9 2.15694 0.0136042
12212.5 1.95925 0.0156276
11593 1.79875 0.0140358
11023.5 1.7505 0.0151718
10551.4 1.78587 0.0159249
9978.77 1.71387 0.016618
9394.15 1.78699 0.0158102
9086.77 1.64464 0.0180168
8530.11 1.59654 0.0172659
8241.54 1.54796 0.0181882
7890.91 1.55456 0.0170152
7545.79 1.44616 0.0188687
7329.41 1.6968 0.0207419
6990.51 1.57827 0.0216878
6718.76 1.52899 0.0201916
6384.66 1.48446 0.0216052
6089.18 1.41914 0.0194852
5974.51 1.50373 0.0214008
5628.98 1.45372 0.0231014
5394.19 1.51054 0.0229459
5229.65 1.34609 0.0230442
5182.37 1.52855 0.0261617
4893.5 1.42046 0.0250767
4801.21 1.5092 0.0280057
4600.01 1.54182 0.0280737
4456.92 1.37237 0.027677
4330.96 1.37283 0.0270646
4174.84 1.44018 0.0289784
4030.67 1.48164 0.0323191
3933.28 1.32713 0.0290602
3765.02 1.1887 0.0269173
3681.99 1.31117 0.0289326
3624 1.37096 0.0329271
3466.91 1.38279 0.0324968
3437.95 1.46133 0.0373473
3281.94 1.27282 0.0325566
3202.14 1.28106 0.0333847
3184.83 1.20613 0.0329817
3090.44 1.38342 0.036707
3048.17 1.28942 0.0357336
2917.36 1.37056 0.0377985
2822.54 1.31406 0.0397785
2725.51 1.31128 0.0394397
2704.01 1.33162 0.041504
2613.45 1.32166 0.0427028
2552.65 1.32148 0.0405899
2452.59 1.22213 0.0437964
2409.06 1.23593 0.041619
2322.13 1.19427 0.0449409
2295.61 1.3028 0.0444947
2232.47 1.13924 0.0418439
2226.08 1.25989 0.0449841
2123.28 1.25518 0.0485443
2082.48 1.33185 0.0511346
2053.61 1.18433 0.0479911
1988.85 1.30829 0.0516021
1947.28 1.21115 0.0491932
1964.94 1.39365 0.0527512
1899.11 1.20976 0.0529556
1859.52 1.20065 0.0470625
1777.07 1.29166 0.0595141
1777.77 1.3448 0.0528501
1714.59 1.26217 0.0589253
1738.52 1.40541 0.0579554
1670.07 1.32642 0.0638592
1712.43 1.50943 0.0664576
1592.22 1.33036 0.0617892
1626.08 1.23443 0.0551504
1561.64 1.32634 0.0708963
1528.92 1.2931 0.0616326
1530.67 1.23933 0.0681707
1475 1.36352 0.0673494
1436.42 1.23523 0.0671956
1410.51 1.31928 0.0679652
1381.56 1.09739 0.0632141
1357.09 1.28269 0.0742988
1334.76 1.30906 0.0743074
1312.63 1.26467 0.0780444
1276.41 1.26705 0.0787175
1245.94 1.27059 0.0776525
1212.95 1.37436 0.0872888
1215.03 1.18781 0.0778952
1193.7 1.17788 0.0787716
1191.55 1.29737 0.0871485
1153.73 1.13174 0.079062
1137.26 1.17183 0.082484
1116.63 1.22172 0.0887237
1095.76 1.19667 0.0889523
1100.28 1.24186 0.0925508
1055.35 1.1892 0.0904974
1049.38 1.18633 0.0879308
1051.52 1.15635 0.0973599
1029.44 1.19677 0.0958293
999.039 1.31593 0.109211
998.032 1.26913 0.0987373
969.922 1.25812 0.103379
972.772 1.33362 0.10655
963.785 1.27203 0.105735
961.107 1.29553 0.108663
929.154 1.29042 0.109165
941.273 1.20715 0.102699
919.684 1.2197 0.108145
898.193 1.17384 0.101592
883.566 1.20585 0.11449
856.601 1.16687 0.108155
856.177 1.29882 0.122855
830.398 1.19976 0.110944
816.533 1.24565 0.121053
814.835 1.23481 0.120649
801.017 1.1258 0.117838
778.176 1.18138 0.117962
806.457 1.13414 0.124917
757.363 1.23039 0.12651
778.541 1.22193 0.131149
776.594 1.21736 0.131794
763.63 1.36036 0.149818
756.251 1.32356 0.143899
738.646 1.27776 0.140502
748.507 1.17227 0.134583
715.626 1.30918 0.14496
718.806 1.16427 0.133521
705.516 1.17805 0.132059
688.435 1.20094 0.142559
666.28 1.2979 0.148816
656.915 1.23951 0.147575
662.499 1.24453 0.156495
633.828 1.24146 0.150662
637.588 1.222 0.153691
612.482 1.16499 0.143947
622.317 1.25394 0.160292
606.783 1.17365 0.152464
603.844 1.15509 0.152984
595.049 1.22283 0.164012
591.017 1.24882 0.176035
594.017 1.31885 0.177163
573.467 1.13716 0.158757
567.675 1.23774 0.171818
553.517 1.22784 0.172639
560.897 1.20857 0.17696
548.122 1.15615 0.165565
556.538 1.26327 0.186079
537.713 1.27273 0.18334
551.391 1.25852 0.188996
529.383 1.23801 0.179752
541.424 1.19511 0.179602
519.774 1.32892 0.192487
534.722 1.21484 0.194816
516.967 1.24422 0.184559
516.192 1.35458 0.208491
515.781 1.35592 0.210909
501.233 1.12572 0.178785
509.883 1.34415 0.20996
483.107 1.24418 0.204691
507.837 1.34853 0.218412
470.168 1.295 0.218557
497.51 1.2375 0.203009
457.887 1.19198 0.211054
476.985 1.2397 0.213256
443.55 1.177 0.20875
462.456 1.22519 0.210536
433.892 1.20597 0.218103
440.585 1.25812 0.226872
430.634 1.33288 0.240386
428.869 1.37363 0.256648
417.224 1.20096 0.226357
412.995 1.14336 0.217154
413.158 1.25353 0.236975
407.113 1.31165 0.2537
408.505 1.15295 0.231373
400.889 1.25432 0.248212
397.797 1.18678 0.247238
392.798 1.33282 0.268404
396.137 1.23225 0.249243
382.311 1.25243 0.258921
390.52 1.24509 0.263042
377.385 1.19223 0.249349
386.917 1.30706 0.274111
372.794 1.30151 0.272766
373.98 1.25039 0.269541
357.15 1.33995 0.287027
362.21 1.25693 0.278612
362.547 1.1577 0.256815
359.199 1.25831 0.282622
352.946 1.32145 0.29758
343.468 1.24051 0.275877
351.353 1.27518 0.299147
343.767 1.17942 0.271688
343.918 1.28054 0.301153
346.596 1.23285 0.291947
339.207 1.15977 0.271179
339.831 1.34076 0.31274
329.626 1.3093 0.319513
329.027 1.25187 0.308588
330.066 1.21175 0.296642
322.023 1.26128 0.308763
314.542 1.32174 0.334758
314.373 1.25451 0.319564
309.441 1.25693 0.325958
311.315 1.30868 0.33465
309.753 1.23914 0.331174
302.998 1.33606 0.354478
305.332 1.33068 0.355849
306.447 1.39136 0.367579
300.044 1.34086 0.361052
297.43 1.27599 0.350569
298.293 1.31357 0.357537
295.925 1.37526 0.377471
297.064 1.32217 0.358569
290.517 1.36007 0.380633
289.905 1.31282 0.371033
282.931 1.45656 0.417019
281.564 1.31138 0.384445
283.074 1.26122 0.36573
277.05 1.35338 0.394789
276.167 1.31971 0.37956
267.859 1.46523 0.432903
271.859 1.35043 0.398545
266.287 1.28566 0.388449
260.748 1.3421 0.405405
262.214 1.34712 0.407775
260.518 1.31859 0.399991
252.225 1.38946 0.431783
255.495 1.31792 0.411246
251.922 1.27288 0.400849
250.476 1.37839 0.4301
250.654 1.29802 0.414349
247.39 1.3667 0.439551
249.267 1.27674 0.409191
247.584 1.50282 0.484649
245.31 1.37467 0.453479
240.02 1.37711 0.452707
241.456 1.41408 0.472846
235.359 1.35672 0.449425
237.724 1.47386 0.498275
238.303 1.28157 0.433412
231.118 1.40062 0.469049
234.25 1.44192 0.481493
233.061 1.43357 0.503695
230.1 1.4211 0.468131
227.56 1.22724 0.425513
238.012 1.45739 0.480985
232.751 1.42888 0.509305
242.156 1.53759 0.474104
234.495 1.38617 0.490206
258.022 1.76758 0.540562
233.23 1.44295 0.53888
273.638 1.54027 0.5068
224.284 1.42419 0.521473
299.77 1.6488 0.533443
222.614 1.43602 0.542511
305.517 1.66891 0.552572
221.11 1.44425 0.542334
302.089 1.67426 0.509677
218.75 1.46337 0.575851
282.044 1.4956 0.538691
225.485 1.42649 0.559682
258.993 1.45319 0.517529
216.109 1.26374 0.496875
227.381 1.39754 0.528977
211.605 1.41904 0.562915
212.388 1.58296 0.623131
205.346 1.3122 0.549569
193.169 1.45533 0.597755
199.695 1.41691 0.583053
187.614 1.50623 0.623177
193.141 1.51152 0.626809
188.539 1.34938 0.573194
186.504 1.44734 0.621828
190.686 1.57358 0.656091
183.124 1.35256 0.593084
188.175 1.40723 0.597455
183.399 1.29959 0.568308
178.272 1.49734 0.643762
181.405 1.3186 0.568058
178.31 1.39075 0.614329
177.668 1.43411 0.62199
176.043 1.38141 0.628313
175.62 1.41166 0.635477
178.868 1.50108 0.672471
176.176 1.48975 0.675309
173.294 1.45412 0.664336
170.107 1.37026 0.624589
171.568 1.55713 0.73447
171.538 1.4832 0.683958
172.327 1.43905 0.683945
171.275 1.47466 0.69238
170.024 1.51868 0.717707
166.466 1.42133 0.689496
164.545 1.37881 0.653411
164.234 1.26728 0.628644
165.623 1.38298 0.661842
162.764 1.3948 0.696796
162.981 1.48446 0.723841
160.255 1.51617 0.743796
158.454 1.53462 0.766642
159.002 1.56171 0.797481
159.811 1.47132 0.762524
156.23 1.63663 0.811231
155.827 1.43768 0.740426
152.098 1.36663 0.711211
152.569 1.45831 0.754117
153.141 1.39556 0.716733
150.691 1.56489 0.808676
150.831 1.3932 0.719566
151.509 1.60604 0.836906
150.443 1.55131 0.806733
147.536 1.50278 0.821386
148.461 1.42347 0.77875
147.119 1.50926 0.817284
145.82 1.53033 0.81885
145.608 1.39604 0.774805
146.154 1.40154 0.761187
146.226 1.56194 0.842573
141.022 1.49785 0.832238
144.953 1.56913 0.885878
142.682 1.3699 0.776655
141.076 1.39139 0.790699
139.978 1.52471 0.895888
139.53 1.6281 0.876142
140.11 1.43334 0.830893
136.114 1.5814 0.92491
141.389 1.44793 0.837179
136.707 1.53384 0.895253
139.156 1.44409 0.845777
136.547 1.46686 0.847339
137.378 1.35529 0.817135
136.974 1.69174 0.985766
132.951 1.36796 0.838304
134.801 1.66149 0.985386
130.79 1.396 0.830954
134.72 1.45585 0.879884
127.502 1.48438 0.880449
131.09 1.49289 0.911533
127.056 1.59405 1.01564
128.97 1.54299 0.931006
128.297 1.66049 1.02928
126.758 1.47542 0.924565
125.875 1.59529 1.01463
125.239 1.34511 0.878502
123.844 1.52611 0.947487
126.526 1.66989 1.07911
123.077 1.58412 1.02326
122.517 1.48656 0.973568
122.313 1.47185 0.96388
120.296 1.59372 0.997576
121.22 1.67151 1.06773
121.773 1.70047 1.13667
123.159 1.57671 1.05397
118.485 1.47691 0.96544
125.073 1.46476 0.994055
120.515 1.58278 1.03835
124.386 1.53213 1.06138
122.727 1.54387 1.03128
122.476 1.66945 1.1323
123.636 1.53153 1.06349
119.552 1.65163 1.12307
127.263 1.54824 1.09517
116.395 1.69486 1.18116
122.491 1.5828 1.08718
112.823 1.58723 1.10483
122.27 1.58615 1.11313
112.965 1.51991 1.05271
118.284 1.7432 1.21708
112.024 1.65679 1.19898
114.005 1.71528 1.24025
110.201 1.81892 1.31124
109.722 1.48681 1.05204
107.674 1.49229 1.06317
108.73 1.55268 1.16296
107.248 1.57042 1.18437
108.84 1.78075 1.31333
106.81 1.51278 1.11153
106.934 1.5048 1.16253
104.992 1.64385 1.18617
106.277 1.6838 1.26345
105.509 1.6814 1.25595
105.896 1.68026 1.26499
103.714 1.76835 1.32781
104.043 1.70984 1.3191
103.397 1.6135 1.18574
102.799 1.73599 1.30977
101.356 1.54112 1.20327
101.066 1.83496 1.3985
103.336 1.69456 1.32188
100.524 1.63947 1.30695
102.765 1.6518 1.30894
99.4404 1.67194 1.2845
101.891 1.63489 1.26645
99.4822 1.5987 1.33049
98.4592 1.67339 1.33037
100.319 1.61134 1.32126
97.4198 1.54605 1.23185
100.265 1.7082 1.43502
98.0105 1.82348 1.43675
98.8064 1.78312 1.47866
97.6303 1.7876 1.45575
98.3247 1.73004 1.39413
97.5288 1.55731 1.31128
95.3305 1.71007 1.3696
96.1189 1.67247 1.43374
97.4171 1.61225 1.34385
96.7313 1.69383 1.39143
94.9854 1.82828 1.5596
94.8657 1.70408 1.458
94.8549 1.75594 1.46143
94.781 1.76994 1.53099
92.8911 1.71434 1.46131
92.9061 1.82604 1.52956
90.0227 1.80917 1.58878
91.9473 1.65765 1.4838
92.0033 1.7891 1.56299
91.7415 1.9124 1.66111
90.0635 1.67197 1.51673
88.4997 1.79614 1.56503
89.5555 1.78826 1.5977
88.6357 1.73959 1.61123
89.7675 1.67538 1.49694
88.7534 1.66286 1.50912
90.3832 1.88335 1.61359
87.0684 1.71716 1.54656
86.8673 1.55293 1.43747
87.4161 1.82113 1.65244
86.6976 1.7373 1.68003
87.1919 1.75116 1.59495
84.8297 1.91226 1.72017
84.7656 1.817 1.74116
84.5846 1.98229 1.87874
83.5623 1.63741 1.58552
87.0615 2.03267 1.79661
84.2405 1.77678 1.74498
85.9532 1.923 1.83148
84.0973 1.92561 1.8085
84.648 1.91223 1.82165
83.3419 1.88013 1.81337
82.6752 1.84338 1.77456
84.3397 1.76175 1.6831
83.0726 1.9013 1.92279
84.6035 2.13384 2.03913
82.6214 1.90514 1.8154
81.9084 1.86078 1.81176
81.0228 1.8968 1.95244
81.3928 2.33522 2.1653
79.4029 1.73024 1.75975
80.5501 1.93026 1.89941
79.5699 2.02044 2.10589
79.9313 1.9858 1.88275
77.7395 1.88248 1.8947
77.4664 1.81644 1.8326
76.8939 1.89537 1.87906
78.6939 1.8276 1.94244
77.7141 1.93762 1.93225
79.4347 1.87019 1.96442
77.9298 1.84661 1.91565
76.9516 2.06478 2.20031
76.2297 1.83371 1.89724
76.8774 1.94253 2.00943
75.0466 1.86012 1.97959
75.4946 1.83751 1.88882
75.2068 1.98795 2.12803
75.7227 2.08497 2.23573
74.0119 2.13763 2.2146
75.3346 2.10927 2.26061
74.8073 2.0709 2.17095
72.0888 1.73064 1.77296
72.6432 2.02945 2.25466
74.6829 2.05303 2.10646
74.2299 1.85732 2.15773
72.9744 1.96683 2.18792
71.8942 1.80871 1.89029
72.8782 1.96725 2.2326
71.9353 1.93741 2.08428
74.3055 1.76446 1.87802
71.2948 1.86833 2.12367
72.0954 1.97909 2.20403
72.0117 2.03477 2.26939
72.4482 2.00326 2.30078
72.6571 2.07699 2.27562
70.981 1.94149 2.27729
71.3817 1.95069 2.15588
68.888 1.86086 2.1388
70.1544 1.90989 2.1304
70.003 1.99032 2.2771
69.2473 2.19837 2.56769
69.5716 2.02681 2.3985
68.5139 2.09204 2.5049
68.7656 2.07998 2.37921
68.2804 2.04326 2.35995
68.864 2.00084 2.34486
67.5407 1.72531 2.01337
68.5513 2.10814 2.47349
67.3798 1.91971 2.30895
66.9642 1.97031 2.35799
67.0695 2.12886 2.54145
68.0683 2.40398 2.86551
68.4872 2.0143 2.39039
66.9407 2.0017 2.48968
66.5886 1.92265 2.26367
66.6737 2.05228 2.52052
65.9718 2.27064 2.72294
66.3886 1.98679 2.50503
66.5909 2.14791 2.63284
65.6823 2.29101 2.68983
64.7422 2.03573 2.54812
64.2535 2.04412 2.52244
64.9201 2.01619 2.48987
64.1768 2.17263 2.68937
63.4722 2.21732 2.6614
63.7316 2.14294 2.68127
64.5697 2.2742 2.84492
64.49 2.00771 2.58692
63.2068 2.22563 2.8102
63.6048 2.19381 2.79627
62.4452 2.23076 2.80255
63.0569 2.14066 2.62452
62.1934 1.96495 2.48448
63.0357 2.11871 2.78207
61.2642 2.13996 2.76468
62.8995 2.06846 2.66308
61.5243 1.97571 2.63244
62.1456 2.34848 3.08765
62.4297 2.28397 2.83809
60.6621 2.2829 3.09443
63.231 2.20836 3.12293
61.7049 2.31163 3.00115
63.5642 2.32708 2.81001
60.5864 2.22201 2.98552
64.9245 2.23951 3.10339
60.3314 2.11439 2.72857
65.186 2.14415 2.82817
58.1706 2.23238 2.95526
64.923 2.15567 2.73328
59.2309 2.07597 2.92978
64.5877 2.45668 3.2267
59.2676 2.26309 3.05288
65.3109 2.56907 3.43834
60.0932 2.46948 3.30756
66.3678 2.46104 3.28218
58.5998 2.20293 2.9773
64.4719 2.80949 3.79557
58.2025 2.50361 3.43548
64.1094 2.52296 3.45757
57.8424 2.52923 3.54113
61.0366 2.42985 3.47787
59.6519 2.27346 3.15989
59.2894 2.71704 3.69037
58.0393 2.51947 3.52309
56.9862 2.32945 3.23809
58.0636 2.36264 3.23671
56.6708 2.31317 3.27692
54.66 2.47963 3.60311
55.0843 2.40479 3.3198
56.0237 2.34003 3.25952
54.8395 2.32554 3.39752
55.7406 2.58902 3.67536
55.0269 2.38011 3.38687
55.0424 2.34809 3.37017
54.7688 2.3077 3.29544
55.3904 2.46905 3.52317
54.5085 2.15577 3.37388
54.6247 2.39177 3.40579
54.8636 2.32354 3.39174
53.5384 2.38357 3.53817
53.627 2.16328 3.30169
54.3434 2.53292 3.94823
54.833 2.29791 3.34126
53.3731 2.4077 3.49429
54.6011 2.31214 3.54082
53.066 2.38636 3.53265
53.3271 2.34559 3.44392
52.8486 2.26953 3.49252
53.3662 2.19783 3.26175
53.522 2.23685 3.31748
54.2096 2.08744 3.14238
52.7269 2.23424 3.43875
52.9995 2.23757 3.49858
53.2587 2.22077 3.29436
54.2034 2.52842 4.08924
52.9319 2.10213 3.18085
52.1231 2.2087 3.4629
52.3437 2.29408 3.41964
52.2674 2.38198 3.66504
53.1684 2.19311 3.51503
51.6398 2.55946 3.77909
53.2587 2.37292 3.85188
50.7282 2.31047 3.53075
50.7004 2.33891 3.79023
50.6774 2.49375 3.9633
51.3748 2.30457 3.81113
50.1263 2.44433 3.65861
51.088 2.27184 3.52198
51.5631 2.42712 3.98549
49.9085 2.67922 4.27218
49.2099 2.50147 4.02675
50.5033 2.39584 3.83384
49.0933 2.15622 3.59201
49.267 2.67381 4.02281
49.1573 2.5323 4.07088
49.5375 2.30461 3.74567
49.6345 2.5589 4.17659
47.8113 2.32551 3.99866
48.9743 2.49845 4.06408
50.4576 2.67075 4.12092
48.4529 2.26407 3.6285
48.7575 2.42892 4.10958
48.5848 2.91745 4.65827
49.7967 2.55064 4.23742
48.5115 2.26533 4.04019
48.6379 2.43765 4.04442
48.3712 2.38005 4.11959
47.2516 2.40743 4.13036
47.6039 2.35045 3.94095
46.8329 2.31457 3.79968
46.3149 2.43453 4.08232
46.061 2.59467 4.45748
47.2889 2.74156 4.5135
47.4688 2.59665 4.51451
47.8582 2.43665 4.17401
47.0342 2.80687 4.74604
46.3696 2.58314 4.43007
46.9644 2.85089 4.78569
46.0357 2.57252 4.29027
46.6482 2.32593 4.1789
46.2281 2.55717 4.35812
47.3888 2.51232 4.35616
44.7368 2.5 4.28703
47.4376 2.45116 4.21082
45.4943 2.54233 4.49956
46.0995 2.35323 4.24148
45.751 2.46409 4.44519
47.3715 2.69144 4.43422
45.9263 2.45224 4.62441
46.4318 2.42938 4.38237
45.7418 2.79536 4.7973
46.8984 2.61013 4.55133
45.4306 2.6301 4.79366
48.4343 2.75526 4.92694
45.9859 2.77384 4.75492
48.3486 2.40662 4.50702
46.1349 2.88944 5.05055
48.3008 2.69584 4.79606
45.7705 2.58336 5.07462
48.6752 2.69988 4.59043
46.1715 2.56343 4.86261
46.8094 2.91717 5.11969
47.014 2.52648 4.44051
47.4849 2.54657 4.61972
47.1165 2.5681 4.48142
44.747 2.52409 4.82222
48.5662 2.53209 4.57588
43.5956 2.75541 4.87721
47.1335 2.62295 4.98762
43.3504 3.01757 5.58589
45.6051 2.51183 4.74268
42.9798 2.69298 4.8695
44.3797 2.72692 5.14058
43.1728 2.60596 4.9735
42.353 2.73804 5.36037
42.0359 2.44604 4.78895
43.0839 2.79468 4.98763
42.1528 2.29675 4.54041
41.0584 2.6479 4.96092
42.5397 2.76841 5.28546
41.6634 2.92356 5.42102
41.5676 2.41812 4.73032
42.467 2.52903 5.00726
41.8288 2.85678 5.21339
41.4315 2.81188 5.66886
42.2204 2.72998 5.59016
41.2194 2.97358 5.57629
41.1702 2.68829 5.05438
41.6151 2.74076 5.19951
41.5233 2.52209 4.91303
42.1108 2.76389 5.29359
41.9665 2.87775 5.63301
41.3777 2.67536 5.03952
42.181 2.8417 5.66292
41.1971 2.62431 5.08851
42.1976 2.76864 5.51606
41.1178 2.48917 5.21532
41.6611 2.73419 5.23007
40.7796 2.67153 5.10597
40.2699 2.73949 5.64085
40.4753 2.97033 5.94225
40.1122 2.88218 5.80174
39.9316 2.74576 5.55699
40.0614 2.79692 5.18648
40.3233 2.76065 5.84439
39.8792 2.95283 5.78373
40.1597 2.71107 5.74434
40.8977 2.7984 5.79717
38.798 3.00533 5.94313
40.804 2.68831 5.62464
39.7839 2.76704 5.63297
40.6602 3.01338 6.0601
40.0978 3.01802 6.1397
39.2713 3.29096 6.43798
39.1638 2.82229 5.79785
38.9546 2.81354 5.63694
39.2784 2.85909 6.1011
38.5987 2.84659 5.96748
39.5678 2.80618 5.74915
38.1289 2.86069 5.60631
39.0346 2.95933 6.20111
38.3212 2.58725 5.74516
38.6696 2.68835 5.59109
39.0713 3.11129 6.40541
39.3403 2.77578 5.82578
39.4831 2.93842 6.54129
38.8765 2.90608 6.05497
37.7423 2.61428 5.64825
39.2926 3.04333 6.08379
37.7469 2.99555 6.34445
38.2383 2.93319 5.95803
37.3703 2.61682 5.76662
38.1502 3.04885 6.57293
37.6133 2.85522 6.21903
37.3027 2.94022 6.10617
36.815 3.11523 6.31571
37.4193 2.61267 5.80503
36.9907 2.92052 6.26231
37.2314 2.8703 6.43398
36.4588 2.92635 6.32115
38.0398 3.0863 6.39318
36.8497 2.7132 6.01726
38.0014 3.03971 6.72465
37.8012 3.23828 7.00191
36.2905 2.82111 6.49891
36.7722 3.53374 7.43161
38.2853 3.07028 6.82086
37.9525 3.02441 6.58666
37.2205 2.90436 6.55885
37.3946 3.12641 6.65659
36.3296 3.01812 6.94783
37.0331 3.14116 6.80764
37.1546 2.92303 6.73698
36.3738 3.20498 7.01308
37.1504 3.19642 7.0408
35.7962 3.04152 6.9222
37.415 3.16556 7.08988
36.7498 3.39291 7.01662
38.1082 2.69611 6.35048
37.4342 3.19357 7.15092
37.2906 3.23693 7.07818
37.2142 3.12157 7.50177
36.7072 3.64408 7.61319
38.8259 3.05586 7.3672
36.3022 2.84611 6.95801
37.8551 3.452 7.36483
35.5055 2.96307 6.94077
36.9838 3.06281 6.84662
34.1911 3.24532 7.79233
36.9294 3.0738 6.92799
35.4469 2.74526 6.45528
36.7582 3.17106 7.05005
34.9823 3.12047 6.89871
36.427 2.91248 6.7067
35.0431 2.86955 6.83838
36.8547 3.16363 6.91637
34.4909 3.05081 6.79138
35.5612 3.24916 8.3423
35.8489 3.45087 8.50531
36.2658 3.56165 7.67559
35.3895 3.02966 6.84334
34.6391 2.95682 7.31159
34.8387 3.26252 7.22923
33.675 2.89411 6.87345
33.837 3.26555 7.75207
34.1931 3.25958 7.86631
34.0434 3.12214 7.27443
34.5271 3.19837 7.55911
34.3846 3.31981 7.60909
34.0603 3.2114 7.8799
33.7839 3.3459 8.04703
33.3645 3.5683 8.90873
34.771 3.4066 7.58052
34.8444 3.14267 7.81862
35.0338 3.16596 7.68555
35.2769 3.3896 7.94707
35.5728 3.12945 7.47208
34.9255 3.18134 8.1391
35.8907 3.69946 8.84865
34.3355 3.09745 7.94386
35.2622 3.60453 8.2853
33.2312 3.29205 8.3665
34.4678 3.58383 7.9964
32.7745 3.30191 8.21019
33.8164 2.95487 7.5713
32.0817 3.61089 8.81662
33.4861 3.1954 7.81737
33.763 3.36576 7.84386
33.1345 3.19989 8.35036
33.7236 3.30279 7.76258
32.5793 3.13964 7.28214
34.0416 3.29988 8.56043
32.6463 3.45345 8.19679
35.4133 3.26469 8.23206
32.8936 3.33529 8.6717
36.1062 3.49543 8.95926
33.2623 3.65309 8.96139
34.8105 3.62337 9.05701
34.5477 3.50006 8.37293
34.2943 3.71841 9.12833
34.3662 3.36133 8.68207
31.8027 3.73542 9.59506
34.4797 3.61726 8.7889
31.9386 3.19939 8.11349
32.8914 3.51903 9.11771
32.2172 3.11578 8.50133
32.7946 3.40036 8.60001
32.4376 3.5704 8.42906
32.4814 3.45401 9.31793
32.4225 3.31353 9.13019
31.0732 3.88079 9.54804
31.6689 3.85243 10.1376
31.9672 3.55621 8.42182
31.5248 3.41502 9.17387
31.6354 3.38033 8.51057
31.9772 3.41106 7.88903
31.0822 3.7878 10.1705
31.9523 3.74669 9.39011
32.2004 3.80091 10.4756
31.5459 3.78778 9.83212
33.2563 3.74474 9.82043
31.5269 3.74877 10.192
34.5427 3.99872 10.3962
31.7724 3.97713 10.3784
34.8633 4.4643 11.6144
32.1199 4.37245 9.90266
34.492 3.59742 10.7689
32.8602 4.26801 11.5991
32.8038 4.18509 9.98489
32.7875 3.85456 9.90686
32.7169 4.28492 10.898
31.9247 4.43113 11.6976
31.4754 4.13624 11.7625
32.1279 4.10508 10.0139
31.2158 4.06469 10.4465
31.0814 3.53446 9.47286
30.1745 3.31969 9.1114
29.7874 3.55657 9.89308
29.5249 3.4589 9.59357
30.4635 4.22088 11.1367
30.3638 3.2665 8.8188
30.1188 3.77169 10.0154
29.267 4.28295 11.1292
30.1911 3.62595 9.81269
29.253 3.43473 9.28826
30.2112 3.96303 10.6983
29.9215 4.1119 10.5565
30.3594 3.37655 9.49483
29.6498 3.81466 10.9442
30.5105 3.60278 9.70146
31.1521 4.08536 11.1899
30.1036 3.81327 10.0182
30.2938 3.54075 9.39319
29.6914 3.47749 9.8094
29.486 3.78855 10.7734
30.8742 3.48715 9.26022
29.8187 3.61715 9.39767
30.87 3.82274 10.914
29.3082 3.6193 9.87992
30.1751 3.7781 10.8851
29.3553 3.71592 9.49665
29.6454 3.60455 9.74518
28.9474 3.664 10.3518
29.6678 3.98155 10.668
29.79 3.91807 10.6266
29.2888 4.21681 12.1296
29.4972 3.85186 9.63578
29.011 3.62562 10.3162
29.8261 3.48113 10.4042
29.8302 3.79028 11.0211
29.7928 3.86187 9.84644
29.2649 4.0141 11.8655
28.6028 4.42059 12.0893
29.832 4.11827 12.0125
29.5694 3.81563 10.8414
29.1196 4.3865 12.7315
28.5431 4.27092 11.8312
29.3422 3.84944 12.6272
28.9599 4.91676 19.8885
30.7077 9.48461 17.1789
28.518 4.03552 12.4888
28.7067 3.83953 10.4161
28.9299 3.54195 10.7675
28.8051 3.5324 10.4767
28.8735 4.30548 11.9263
28.52 4.13644 10.9048
29.7223 3.92693 11.8716
28.7611 4.02301 11.9791
29.1382 3.83532 10.6938
28.5585 3.51415 10.5754
28.1381 3.8822 11.6887
29.2123 4.12349 12.1303
28.4934 3.95356 11.4083
29.2183 4.0115 11.5037
27.3253 3.96031 12.4127
28.7435 4.32116 12.599
28.0365 4.14237 11.3109
27.8462 4.66305 12.8115
27.8241 3.79923 12.5967
28.3315 4.32187 12.0011
28.6159 3.95584 11.4192
28.0258 4.35394 13.3578
28.6712 4.08742 12.2875
27.983 4.26521 11.5059
27.3142 4.31385 11.8255
27.519 3.85126 11.1021
28.0193 4.18006 12.1944
27.6897 3.88701 10.6716
27.8326 4.12794 11.1777
26.8291 3.62432 11.4322
27.7079 4.29401 13.2706
28.1313 3.77772 10.825
27.3444 3.54807 10.4408
27.8462 4.09267 11.9272
27.8206 4.11633 11.9355
27.3978 3.97799 13.4788
28.092 4.66225 12.5279
27.4409 4.30678 13.4706
27.0993 3.81478 11.5814
27.1332 3.95643 12.1189
27.0768 4.37303 13.045
27.0784 4.12951 11.7594
27.7468 3.81408 12.0291
26.9706 4.14636 12.7678
27.5186 4.85723 13.6426
26.8595 3.95153 12.2598
27.9576 4.48687 14.3373
27.7904 4.29774 11.896
28.671 4.22522 13.1677
27.1563 4.18572 12.3822
27.8736 4.07568 12.1493
26.83 4.54505 13.6386
28.8166 4.20817 13.556
26.4483 4.29279 13.9962
27.8998 4.60733 14.5183
27.0358 4.73642 12.9001
27.9128 4.25807 12.7755
26.7591 4.32133 12.9883
26.9319 4.0944 12.9637
26.7123 4.75967 14.0785
26.1493 4.33789 14.1203
26.4992 4.50748 14.4645
26.8345 3.84835 11.5695
27.0028 4.01415 12.1206
25.9713 4.75697 14.4979
26.6468 4.24103 13.0678
27.1127 4.33892 13.5803
26.842 4.1666 12.6961
27.0817 4.49688 13.2926
25.7231 3.7298 12.3866
26.6893 4.63869 14.4485
27.1394 4.38529 13.6422
27.175 5.97346 19.5166
27.2293 4.62921 13.5697
25.7887 4.17508 11.9547
26.0945 3.86498 13.5828
26.253 4.66217 14.8083
26.7477 4.4486 14.0956
27.0065 4.14692 11.8963
25.8192 4.02809 12.2833
26.2606 4.39103 14.4065
26.5864 4.91189 14.3667
26.0622 4.16114 13.6666
25.8843 4.6456 14.3457
26.9335 3.96659 13.4672
26.8828 4.67123 15.3845
25.302 4.25459 13.2251
25.7455 4.26803 12.5686
25.9482 4.74944 15.4758
25.2677 4.59284 15.1936
26.0872 4.29019 14.4668
25.5166 4.25707 12.6605
26.2272 4.39732 12.9456
26.0713 4.37557 13.8272
26.1005 4.58656 14.2463
26.0005 4.20152 13.1732
25.7171 4.12045 13.6027
25.5957 4.13866 13.0892
25.9793 4.28824 13.5119
25.7946 3.9864 12.4307
25.8415 4.72316 16.4382
26.4797 4.24741 13.8195
25.4321 4.51238 14.1655
26.0012 4.22149 13.2955
25.7454 4.53145 14.945
25.872 4.48196 13.7596
24.9755 4.23993 12.8824
25.7186 4.57617 14.2116
25.1376 4.3174 15.8629
25.8201 5.16427 16.3751
25.364 4.94037 15.1314
25.8952 4.41846 14.3647
25.6261 4.77722 15.6385
25.1184 5.48377 17.6155
24.8746 4.91509 16.3003
25.5133 5.08053 16.8401
25.3622 4.26572 14.964
25.6794 4.51434 14.1813
24.974 4.56438 15.9549
25.8892 5.26917 17.1426
25.4039 4.8561 15.3909
25.4755 4.98422 17.1115
25.119 4.94083 16.641
26.1983 4.54238 13.8097
25.067 4.63056 14.979
25.9483 4.02133 13.7766
25.0051 4.40569 14.6785
25.3331 5.04123 15.4381
25.658 4.20178 15.5383
25.8159 4.81076 14.1248
25.018 4.94064 15.9313
25.0989 4.68691 15.2601
25.2826 4.41795 16.6537
25.4304 5.05242 15.7117
25.974 4.80884 15.0289
24.2273 4.56471 16.3578
25.8796 4.08705 14.6617
24.7268 4.71708 15.4478
24.0267 4.82398 16.8131
25.132 4.77589 15.6019
24.3216 4.7879 15.8187
24.931 4.75701 17.4164
24.2791 5.40436 16.4439
25.2587 4.43964 14.7111
24.0431 4.72457 15.9837
24.0214 4.61603 13.8891
24.5 4.08555 14.995
24.2564 4.32667 14.6939
24.6578 4.30925 14.1694
25.2866 4.14079 14.5447
24.9617 4.6039 14.7772
24.9268 3.99542 14.2651
25.1754 4.50949 14.9365
24.8973 4.99427 16.242
24.5226 4.56304 15.2198
24.7014 4.68477 16.5688
25.3309 4.32586 15.0827
24.8686 4.58004 15.3469
24.6078 4.78191 16.0678
24.3879 4.5887 16.1193
24.8645 4.68068 16.8249
25.3272 4.79503 15.0638
24.03 5.05462 17.6725
24.6572 4.81928 15.3432
24.126 4.58545 15.7248
25.0148 4.3714 16.0947
24.1224 4.65114 15.9789
23.9329 3.94625 14.0988
24.1839 4.61682 15.5916
24.8415 5.03268 17.449
23.927 4.8211 15.2017
23.649 5.45025 19.1571
24.8674 4.71784 14.846
24.3421 4.9437 16.4788
24.0611 4.34793 17.1118
24.0709 4.54432 15.7223
23.972 4.345 14.3977
23.8791 4.84091 16.6764
24.5957 4.6158 15.8825
24.2715 4.84262 15.9552
24.6532 4.83244 17.3544
24.5787 4.99207 17.1369
24.8403 4.52491 16.0329
24.3239 5.22789 17.3666
24.1776 4.7568 16.7038
23.6609 4.86125 17.4661
24.8774 5.09328 18.2096
23.7283 4.75969 16.1033
24.4742 5.08202 20.0766
24.2655 6.03038 20.3091
25.1141 5.28445 16.7782
23.5302 4.44402 15.2919
23.9303 4.53217 18.5079
23.1875 5.30587 16.7987
23.3011 4.42221 17.5826
24.0087 5.71452 17.1662
23.5624 4.8116 17.396
23.6508 4.94208 17.4877
23.9184 4.40299 15.5439
23.3826 4.86676 17.7632
23.1363 4.54595 16.2075
23.8118 4.95275 17.6762
23.9801 4.82 18.1003
23.8607 4.90414 16.8708
22.728 5.03171 17.5224
24.3008 4.90575 16.4904
23.1548 5.16645 19.9485
22.6646 5.44771 17.947
23.5297 5.15949 19.061
23.3219 5.11647 16.0411
23.7277 4.7767 17.8562
22.5956 4.73441 17.7891
23.9504 4.8459 17.241
23.3818 5.89934 19.6253
23.7806 5.0575 18.4239
23.4314 5.16407 16.4431
23.571 4.43447 15.8623
23.0911 4.57563 17.2635
23.4175 4.46266 16.6803
23.0354 5.12859 18.5684
23.8569 4.66351 15.9516
23.1365 4.89002 18.7969
24.3452 4.91374 19.3763
23.449 5.13047 15.8667
22.7022 4.75829 17.0991
23.2816 4.66267 17.3812
23.3863 5.09208 17.1125
23.4149 5.1821 19.1621
24.8774 5.24476 19.7726
23.2788 5.07906 18.2704
23.5425 5.73886 19.7707
23.8474 5.69191 22.4912
24.0977 5.70761 22.1413
22.6365 6.14853 19.5005
24.707 5.40888 22.0874
23.8731 6.16489 21.7248
24.7184 6.35644 20.5407
22.5464 5.68559 20.1185
23.9797 5.27647 20.3117
23.1115 4.51364 18.1989
24.158 5.33124 17.3122
22.8594 5.32581 18.0031
22.7966 5.26379 21.2064
23.1411 5.57473 20.5725
22.9677 5.25789 19.6203
23.2052 5.77949 20.2114
22.5951 4.89298 18.1977
23.3398 5.22062 18.2451
22.8397 5.07883 18.3947
22.7214 5.12848 18.6575
22.3393 5.14167 17.7219
22.238 4.47217 20.3904
23.163 5.97983 21.6119
22.6338 5.58647 20.7489
22.6041 5.4839 19.8533
22.703 4.97935 18.1773
22.8993 5.19763 18.207
22.7712 5.45787 19.7969
23.3197 5.17131 21.6972
22.5649 5.41533 18.4167
22.9165 5.107 17.3006
22.5303 4.75972 18.3979
23.5908 5.36901 17.5746
23.1714 5.27148 18.8998
22.5441 4.75095 19.6762
23.4591 5.16877 19.0708
22.5013 4.46471 16.619
22.2364 4.58462 17.4142
21.7994 4.82925 18.8387
23.0541 5.26986 19.0645
22.4906 5.5543 19.6374
23.1265 5.37502 19.4702
22.204 5.25306 19.8719
22.8104 5.53777 18.8542
21.8268 4.77981 18.8012
22.1197 5.29987 20.8008
22.4584 5.71954 20.7888
23.2926 5.25343 20.9702
22.3336 5.48121 18.3763
23.3204 4.98798 19.8373
22.3916 5.65587 19.4686
22.5161 5.58152 21.1033
22.6957 5.36622 18.6448
23.2383 4.91961 19.8746
21.8573 5.60333 21.2848
23.1444 4.76519 18.7821
22.0458 5.10968 17.743
21.6972 5.08523 21.1146
23.3689 5.29995 19.6354
21.7996 5.15362 18.1979
22.1597 5.82356 22.0416
21.8816 5.27873 18.6989
22.2487 4.86385 18.4369
22.8051 5.28796 22.2132
21.8959 5.49457 19.5665
21.8442 5.72558 21.639
21.9151 5.10796 18.0242
21.8121 5.12344 18.8598
22.2401 5.26861 18.4361
21.9546 4.80906 18.4363
21.8332 5.26332 18.6271
21.9549 4.58374 19.3485
22.0899 5.05317 20.2656
22.1038 5.49382 19.0583
22.2515 5.16444 20.8521
22.4122 5.3055 20.0799
21.96 5.39552 19.7399
22.0035 4.95118 19.3939
22.3074 5.62154 21.1142
21.7221 5.09501 18.5527
21.9422 5.04912 20.4044
22.9004 5.45178 19.663
21.1949 4.86942 19.257
22.9488 5.09414 17.8805
22.0467 4.39251 15.6641
22.4618 4.97048 19.5747
22.4466 4.60047 18.381
22.5865 5.17791 18.6534
22.1234 4.9343 20.4399
22.7933 5.42153 22.4432
22.7996 6.02166 18.9171
22.4756 4.63758 19.2402
22.2483 4.88205 18.644
23.2377 5.45343 21.3879
22.1798 4.6917 19.6048
25.2066 6.04874 18.9737
22.229 4.69286 20.8925
25.2635 5.16038 18.0009
21.5242 5.20227 20.5444
24.3086 5.0582 18.1223
22.9725 4.69886 19.4192
24.5579 5.32909 21.6102
24.0759 5.27577 19.2432
23.3636 4.97563 20.3289
24.301 4.79478 18.1946
22.9041 5.3588 18.6237
23.9189 4.88892 18.386
21.9854 5.14114 20.1738
23.7541 5.51521 20.4336
22.1114 4.52919 16.2747
23.4063 5.07747 19.7536
21.341 5.533 21.1581
24.2297 5.20553 21.2526
21.748 5.52249 21.7152
23.3516 5.62183 19.5001
22.0546 5.36756 20.8719
22.0511 4.88739 21.5955
22.5815 6.18227 22.3247
22.3529 4.81786 19.377
21.864 5.56129 21.7432
21.6285 5.6377 22.1465
22.1021 5.36166 17.8321
21.3576 4.86364 19.7217
21.2056 4.82589 20.9008
21.8021 5.62739 20.0533
21.4163 4.8765 20.3109
21.9437 4.8927 18.2203
21.0225 5.01285 20.6304
22.0984 5.04044 18.0627
21.33 5.71757 22.8109
21.8292 4.57953 17.4567
20.8552 5.27817 19.7435
21.2456 4.50917 16.8483
21.6586 5.3984 20.0877
21.5974 4.6403 18.5998
21.1537 4.78711 20.9826
21.5536 4.98667 18.7821
21.1534 4.96602 19.8324
20.931 5.90861 22.8361
21.8117 5.17301 20.5584
21.991 5.35037 19.0337
21.5052 4.50868 17.2778
22.0609 4.72602 18.8492
21.1863 5.10913 21.508
21.6492 5.38239 20.1981
21.3827 4.96958 20.4452
22.7489 4.49236 16.1613
21.2226 4.88629 20.6114
20.8233 5.73407 20.5929
21.0149 4.73228 17.638
20.9269 5.01214 21.4961
20.5559 5.10121 21.5463
21.9327 6.21426 23.7916
21.9907 5.35102 18.9526
21.5887 5.2221 21.1487
21.348 5.4422 17.7838
21.4204 4.81279 20.6928
21.3704 4.94673 18.7607
21.516 5.24356 24.2327
21.1311 5.47194 18.8939
21.4621 5.27282 20.1213
20.8206 5.42871 21.2703
21.5856 5.11816 22.0958
21.0609 5.82738 19.67
21.3959 5.60835 20.8628
20.8377 5.52634 21.7058
21.2538 4.85754 19.8659
20.3202 4.93935 21.3938
21.3416 4.96313 21.1374
21.0337 5.35174 20.9875
21.5527 5.62942 20.0112
20.9797 4.83285 18.9234
21.8475 5.46429 21.5327
19.889 5.30767 20.7605
21.3296 5.27161 19.855
21.2913 4.952 19.2487
21.2445 4.80719 19.9804
21.7843 5.14857 21.0191
21.3618 5.89018 20.6355
21.9796 4.9859 20.6113
20.9426 5.36325 21.1426
22.4501 4.77014 18.2362
21.2031 4.64783 18.3852
20.9258 4.80612 20.0095
21.6291 5.51303 21.1777
21.2321 5.33094 22.0838
20.7613 5.58182 22.3542
20.9057 5.42073 20.7863
20.9262 5.36455 20.3564
21.0806 4.862 22.0083
21.2043 5.17631 20.0823
20.812 5.43895 21.1652
21.4345 5.83377 19.7573
20.8962 5.183 21.6524
21.6196 5.80541 22.0267
21.0866 5.43773 21.3268
21.3667 5.0826 20.8817
20.12 4.89265 20.6847
21.4539 5.10816 19.4292
20.9284 5.87501 22.6028
21.4357 5.46779 20.8972
22.4641 5.37209 21.9668
21.1394 5.44764 20.4596
22.1697 4.86306 19.3512
20.4143 5.51708 21.1358
21.4407 4.78595 20.0468
21.2331 5.19241 20.3475
22.0894 5.67784 23.9792
20.5632 5.54418 20.8659
22.0831 5.39896 21.2229
21.0368 5.16453 21.7399
21.3223 4.79747 19.5563
21.1625 5.63898 20.0911
20.9305 4.56395 17.7989
20.779 4.58119 20.8658
20.7727 5.30476 21.1536
20.9351 4.85837 19.7128
20.795 5.21518 20.8651
20.4614 5.55855 21.5993
21.6082 5.01888 19.3953
20.6456 5.31287 20.2379
21.3021 5.09796 20.2086
20.9955 5.84315 24.5007
20.8436 5.61289 20.3142
20.9137 5.3842 19.7854
20.6748 5.23236 23.2274
21.0697 5.23548 22.9614
21.2942 5.73788 20.7941
21.0303 5.45601 21.6847
21.0519 5.68958 22.4508
20.5529 5.40336 21.2238
19.923 5.05321 21.037
21.3047 5.12898 20.2358
20.8477 5.04466 21.9282
20.4515 5.59312 23.267
21.3155 5.6451 22.8173
20.6063 5.88375 20.7431
20.7741 5.59572 20.6852
21.1846 4.3608 18.4366
20.8197 5.15972 19.8702
20.5136 5.81455 21
20.986 5.00796 22.0057
20.7909 5.63019 23.1984
20.6207 5.42699 21.349
21.4484 5.57374 21.2306
20.8452 5.56268 26.3609
21.6103 5.76732 21.5576
20.213 5.76768 23.1683
21.5023 5.53682 20.9266
21.1535 5.86608 22.1275
21.0873 5.39429 22.4972
20.9274 6.24158 24.9865
21.1938 5.75524 21.3206
20.6242 5.08515 22.3055
20.441 4.95813 19.3863
20.8947 5.77527 21.9104
21.0585 5.2959 22.8381
21.6532 5.19158 21.4954
21.6088 6.11029 21.2949
21.3515 5.20914 22.6598
22.03 5.6625 20.8448
21.0442 5.4493 20.9924
21.1914 5.27101 23.3083
21.4579 5.00755 24.9922
21.3296 8.24173 23.7464
21.2713 5.71212 23.7302
21.2387 5.17815 22.0877
20.8976 5.3385 21.0087
21.1119 5.31455 20.8826
21.8196 5.25054 19.6331
20.3921 5.70294 23.5507
21.5714 5.61501 25.318
20.7481 5.85161 23.7393
20.8218 6.10314 21.5155
20.8596 5.35025 20.7399
20.8315 5.27135 21.9177
20.4031 5.57911 23.7692
20.6824 5.72606 23.159
21.2685 5.38324 24.1771
20.5574 5.96127 21.4101
21.1616 5.41518 21.9109
20.4033 5.78545 21.998
20.6223 5.90746 26.7555
20.7573 5.74918 21.8965
20.7554 5.72611 22.5995
20.7916 5.22838 19.9642
20.9333 6.02968 23.2839
21.9496 6.03152 24.1252
22.2326 5.72144 22.5221
20.9107 5.76396 25.169
23.1449 6.61096 28.2129
21.6912 6.122 20.8524
23.1932 0 0